ID,endDate,startDate,didSess3,hourDiff21,hourDiffPrev,session,task,dev,trialNum,rt,response,subj_idx,timeCondition
0349843571f5184e8feb7995bc,10/27/2019 12:16,6/23/2020 21:26,0,5769.15,5769.15,1,Horizontal,10,1,0.766,1,0,months8
0349843571f5184e8feb7995bc,10/27/2019 12:16,6/23/2020 21:26,0,5769.15,5769.15,1,Horizontal,-6,2,0.987,0,0,months8
0349843571f5184e8feb7995bc,10/27/2019 12:16,6/23/2020 21:26,0,5769.15,5769.15,1,Horizontal,-10,3,0.63,0,0,months8
0349843571f5184e8feb7995bc,10/27/2019 12:16,6/23/2020 21:26,0,5769.15,5769.15,1,Vertical,-4,4,1.284,0,0,months8
0349843571f5184e8feb7995bc,10/27/2019 12:16,6/23/2020 21:26,0,5769.15,5769.15,1,Vertical,10,5,0.91,1,0,months8
0349843571f5184e8feb7995bc,10/27/2019 12:16,6/23/2020 21:26,0,5769.15,5769.15,1,Vertical,-10,6,0.797,0,0,months8
0349843571f5184e8feb7995bc,10/27/2019 12:16,6/23/2020 21:26,0,5769.15,5769.15,1,Horizontal,0,7,1.298,1,0,months8
0349843571f5184e8feb7995bc,10/27/2019 12:16,6/23/2020 21:26,0,5769.15,5769.15,1,Horizontal,-4,8,0.791,0,0,months8
0349843571f5184e8feb7995bc,10/27/2019 12:16,6/23/2020 21:26,0,5769.15,5769.15,1,Horizontal,-2,9,1.063,0,0,months8
0349843571f5184e8feb7995bc,10/27/2019 12:16,6/23/2020 21:26,0,5769.15,5769.15,1,Vertical,2,10,1.346,0,0,months8
0349843571f5184e8feb7995bc,10/27/2019 12:16,6/23/2020 21:26,0,5769.15,5769.15,1,Vertical,-4,11,0.641,0,0,months8
0349843571f5184e8feb7995bc,10/27/2019 12:16,6/23/2020 21:26,0,5769.15,5769.15,1,Vertical,6,12,0.677,1,0,months8
0349843571f5184e8feb7995bc,10/27/2019 12:16,6/23/2020 21:26,0,5769.15,5769.15,1,Horizontal,0,13,1.083,1,0,months8
0349843571f5184e8feb7995bc,10/27/2019 12:16,6/23/2020 21:26,0,5769.15,5769.15,1,Horizontal,-2,14,0.951,1,0,months8
0349843571f5184e8feb7995bc,10/27/2019 12:16,6/23/2020 21:26,0,5769.15,5769.15,1,Horizontal,10,15,1.043,1,0,months8
0349843571f5184e8feb7995bc,10/27/2019 12:16,6/23/2020 21:26,0,5769.15,5769.15,1,Vertical,0,16,0.637,0,0,months8
0349843571f5184e8feb7995bc,10/27/2019 12:16,6/23/2020 21:26,0,5769.15,5769.15,1,Vertical,2,17,0.888,0,0,months8
0349843571f5184e8feb7995bc,10/27/2019 12:16,6/23/2020 21:26,0,5769.15,5769.15,1,Vertical,-10,18,0.706,0,0,months8
0349843571f5184e8feb7995bc,10/27/2019 12:16,6/23/2020 21:26,0,5769.15,5769.15,1,Horizontal,4,19,0.714,1,0,months8
0349843571f5184e8feb7995bc,10/27/2019 12:16,6/23/2020 21:26,0,5769.15,5769.15,1,Horizontal,-8,20,0.81,0,0,months8
0349843571f5184e8feb7995bc,10/27/2019 12:16,6/23/2020 21:26,0,5769.15,5769.15,1,Horizontal,4,21,0.574,1,0,months8
0349843571f5184e8feb7995bc,10/27/2019 12:16,6/23/2020 21:26,0,5769.15,5769.15,1,Vertical,6,22,0.914,1,0,months8
0349843571f5184e8feb7995bc,10/27/2019 12:16,6/23/2020 21:26,0,5769.15,5769.15,1,Vertical,10,23,0.678,1,0,months8
0349843571f5184e8feb7995bc,10/27/2019 12:16,6/23/2020 21:26,0,5769.15,5769.15,1,Vertical,-2,24,1.067,0,0,months8
0349843571f5184e8feb7995bc,10/27/2019 12:16,6/23/2020 21:26,0,5769.15,5769.15,1,Horizontal,0,25,0.879,1,0,months8
0349843571f5184e8feb7995bc,10/27/2019 12:16,6/23/2020 21:26,0,5769.15,5769.15,1,Horizontal,4,26,0.572,1,0,months8
0349843571f5184e8feb7995bc,10/27/2019 12:16,6/23/2020 21:26,0,5769.15,5769.15,1,Horizontal,-4,27,1.023,0,0,months8
0349843571f5184e8feb7995bc,10/27/2019 12:16,6/23/2020 21:26,0,5769.15,5769.15,1,Vertical,0,28,1.195,0,0,months8
0349843571f5184e8feb7995bc,10/27/2019 12:16,6/23/2020 21:26,0,5769.15,5769.15,1,Vertical,-2,29,0.994,0,0,months8
0349843571f5184e8feb7995bc,10/27/2019 12:16,6/23/2020 21:26,0,5769.15,5769.15,1,Vertical,4,30,0.817,1,0,months8
0349843571f5184e8feb7995bc,10/27/2019 12:16,6/23/2020 21:26,0,5769.15,5769.15,1,Horizontal,-8,31,0.802,0,0,months8
0349843571f5184e8feb7995bc,10/27/2019 12:16,6/23/2020 21:26,0,5769.15,5769.15,1,Horizontal,-8,32,0.68,0,0,months8
0349843571f5184e8feb7995bc,10/27/2019 12:16,6/23/2020 21:26,0,5769.15,5769.15,1,Horizontal,6,33,0.7,1,0,months8
0349843571f5184e8feb7995bc,10/27/2019 12:16,6/23/2020 21:26,0,5769.15,5769.15,1,Vertical,-10,34,0.658,0,0,months8
0349843571f5184e8feb7995bc,10/27/2019 12:16,6/23/2020 21:26,0,5769.15,5769.15,1,Vertical,2,35,0.624,0,0,months8
0349843571f5184e8feb7995bc,10/27/2019 12:16,6/23/2020 21:26,0,5769.15,5769.15,1,Vertical,-2,36,0.969,0,0,months8
0349843571f5184e8feb7995bc,10/27/2019 12:16,6/23/2020 21:26,0,5769.15,5769.15,1,Horizontal,0,37,1.697,1,0,months8
0349843571f5184e8feb7995bc,10/27/2019 12:16,6/23/2020 21:26,0,5769.15,5769.15,1,Horizontal,-4,38,0.701,0,0,months8
0349843571f5184e8feb7995bc,10/27/2019 12:16,6/23/2020 21:26,0,5769.15,5769.15,1,Horizontal,-6,39,0.815,0,0,months8
0349843571f5184e8feb7995bc,10/27/2019 12:16,6/23/2020 21:26,0,5769.15,5769.15,1,Vertical,0,40,0.618,1,0,months8
0349843571f5184e8feb7995bc,10/27/2019 12:16,6/23/2020 21:26,0,5769.15,5769.15,1,Vertical,10,41,0.685,1,0,months8
0349843571f5184e8feb7995bc,10/27/2019 12:16,6/23/2020 21:26,0,5769.15,5769.15,1,Vertical,-4,42,1.026,0,0,months8
0349843571f5184e8feb7995bc,10/27/2019 12:16,6/23/2020 21:26,0,5769.15,5769.15,1,Horizontal,4,43,0.595,1,0,months8
0349843571f5184e8feb7995bc,10/27/2019 12:16,6/23/2020 21:26,0,5769.15,5769.15,1,Horizontal,6,44,0.614,1,0,months8
0349843571f5184e8feb7995bc,10/27/2019 12:16,6/23/2020 21:26,0,5769.15,5769.15,1,Horizontal,10,45,0.465,1,0,months8
0349843571f5184e8feb7995bc,10/27/2019 12:16,6/23/2020 21:26,0,5769.15,5769.15,1,Vertical,0,46,0.788,0,0,months8
0349843571f5184e8feb7995bc,10/27/2019 12:16,6/23/2020 21:26,0,5769.15,5769.15,1,Vertical,-8,47,0.643,0,0,months8
0349843571f5184e8feb7995bc,10/27/2019 12:16,6/23/2020 21:26,0,5769.15,5769.15,1,Vertical,8,48,0.883,1,0,months8
0349843571f5184e8feb7995bc,10/27/2019 12:16,6/23/2020 21:26,0,5769.15,5769.15,1,Horizontal,0,49,0.857,1,0,months8
0349843571f5184e8feb7995bc,10/27/2019 12:16,6/23/2020 21:26,0,5769.15,5769.15,1,Horizontal,2,50,1.081,1,0,months8
0349843571f5184e8feb7995bc,10/27/2019 12:16,6/23/2020 21:26,0,5769.15,5769.15,1,Horizontal,-2,51,0.878,0,0,months8
0349843571f5184e8feb7995bc,10/27/2019 12:16,6/23/2020 21:26,0,5769.15,5769.15,1,Vertical,4,52,1.944,0,0,months8
0349843571f5184e8feb7995bc,10/27/2019 12:16,6/23/2020 21:26,0,5769.15,5769.15,1,Vertical,-6,53,0.906,0,0,months8
0349843571f5184e8feb7995bc,10/27/2019 12:16,6/23/2020 21:26,0,5769.15,5769.15,1,Vertical,4,54,0.972,1,0,months8
0349843571f5184e8feb7995bc,10/27/2019 12:16,6/23/2020 21:26,0,5769.15,5769.15,1,Horizontal,-2,55,0.812,0,0,months8
0349843571f5184e8feb7995bc,10/27/2019 12:16,6/23/2020 21:26,0,5769.15,5769.15,1,Horizontal,-8,56,0.599,0,0,months8
0349843571f5184e8feb7995bc,10/27/2019 12:16,6/23/2020 21:26,0,5769.15,5769.15,1,Horizontal,2,57,0.691,1,0,months8
0349843571f5184e8feb7995bc,10/27/2019 12:16,6/23/2020 21:26,0,5769.15,5769.15,1,Vertical,0,58,0.833,0,0,months8
0349843571f5184e8feb7995bc,10/27/2019 12:16,6/23/2020 21:26,0,5769.15,5769.15,1,Vertical,4,59,0.851,1,0,months8
0349843571f5184e8feb7995bc,10/27/2019 12:16,6/23/2020 21:26,0,5769.15,5769.15,1,Vertical,6,60,0.681,1,0,months8
0349843571f5184e8feb7995bc,10/27/2019 12:16,6/23/2020 21:26,0,5769.15,5769.15,1,Horizontal,0,61,4.299,1,0,months8
0349843571f5184e8feb7995bc,10/27/2019 12:16,6/23/2020 21:26,0,5769.15,5769.15,1,Horizontal,6,62,1.052,1,0,months8
0349843571f5184e8feb7995bc,10/27/2019 12:16,6/23/2020 21:26,0,5769.15,5769.15,1,Horizontal,8,63,0.661,1,0,months8
0349843571f5184e8feb7995bc,10/27/2019 12:16,6/23/2020 21:26,0,5769.15,5769.15,1,Vertical,0,64,0.833,0,0,months8
0349843571f5184e8feb7995bc,10/27/2019 12:16,6/23/2020 21:26,0,5769.15,5769.15,1,Vertical,8,65,0.855,1,0,months8
0349843571f5184e8feb7995bc,10/27/2019 12:16,6/23/2020 21:26,0,5769.15,5769.15,1,Vertical,8,66,0.81,1,0,months8
0349843571f5184e8feb7995bc,10/27/2019 12:16,6/23/2020 21:26,0,5769.15,5769.15,1,Horizontal,0,67,1.402,1,0,months8
0349843571f5184e8feb7995bc,10/27/2019 12:16,6/23/2020 21:26,0,5769.15,5769.15,1,Horizontal,-10,68,0.489,0,0,months8
0349843571f5184e8feb7995bc,10/27/2019 12:16,6/23/2020 21:26,0,5769.15,5769.15,1,Horizontal,10,69,0.519,1,0,months8
0349843571f5184e8feb7995bc,10/27/2019 12:16,6/23/2020 21:26,0,5769.15,5769.15,1,Vertical,-6,70,0.391,0,0,months8
0349843571f5184e8feb7995bc,10/27/2019 12:16,6/23/2020 21:26,0,5769.15,5769.15,1,Vertical,-8,71,0.627,0,0,months8
0349843571f5184e8feb7995bc,10/27/2019 12:16,6/23/2020 21:26,0,5769.15,5769.15,1,Vertical,-2,72,0.865,0,0,months8
0349843571f5184e8feb7995bc,10/27/2019 12:16,6/23/2020 21:26,0,5769.15,5769.15,1,Horizontal,8,73,0.606,1,0,months8
0349843571f5184e8feb7995bc,10/27/2019 12:16,6/23/2020 21:26,0,5769.15,5769.15,1,Horizontal,-8,74,0.584,0,0,months8
0349843571f5184e8feb7995bc,10/27/2019 12:16,6/23/2020 21:26,0,5769.15,5769.15,1,Horizontal,-2,75,0.875,0,0,months8
0349843571f5184e8feb7995bc,10/27/2019 12:16,6/23/2020 21:26,0,5769.15,5769.15,1,Vertical,0,76,0.771,0,0,months8
0349843571f5184e8feb7995bc,10/27/2019 12:16,6/23/2020 21:26,0,5769.15,5769.15,1,Vertical,8,77,0.748,1,0,months8
0349843571f5184e8feb7995bc,10/27/2019 12:16,6/23/2020 21:26,0,5769.15,5769.15,1,Vertical,-8,78,0.584,0,0,months8
0349843571f5184e8feb7995bc,10/27/2019 12:16,6/23/2020 21:26,0,5769.15,5769.15,1,Horizontal,-6,79,0.481,0,0,months8
0349843571f5184e8feb7995bc,10/27/2019 12:16,6/23/2020 21:26,0,5769.15,5769.15,1,Horizontal,2,80,0.652,1,0,months8
0349843571f5184e8feb7995bc,10/27/2019 12:16,6/23/2020 21:26,0,5769.15,5769.15,1,Horizontal,6,81,0.566,1,0,months8
0349843571f5184e8feb7995bc,10/27/2019 12:16,6/23/2020 21:26,0,5769.15,5769.15,1,Vertical,-10,82,0.719,0,0,months8
0349843571f5184e8feb7995bc,10/27/2019 12:16,6/23/2020 21:26,0,5769.15,5769.15,1,Vertical,2,83,0.505,1,0,months8
0349843571f5184e8feb7995bc,10/27/2019 12:16,6/23/2020 21:26,0,5769.15,5769.15,1,Vertical,2,84,0.972,0,0,months8
0349843571f5184e8feb7995bc,10/27/2019 12:16,6/23/2020 21:26,0,5769.15,5769.15,1,Horizontal,0,85,1.186,0,0,months8
0349843571f5184e8feb7995bc,10/27/2019 12:16,6/23/2020 21:26,0,5769.15,5769.15,1,Horizontal,8,86,0.606,1,0,months8
0349843571f5184e8feb7995bc,10/27/2019 12:16,6/23/2020 21:26,0,5769.15,5769.15,1,Horizontal,-4,87,0.594,0,0,months8
0349843571f5184e8feb7995bc,10/27/2019 12:16,6/23/2020 21:26,0,5769.15,5769.15,1,Vertical,0,88,0.614,0,0,months8
0349843571f5184e8feb7995bc,10/27/2019 12:16,6/23/2020 21:26,0,5769.15,5769.15,1,Vertical,6,89,0.852,1,0,months8
0349843571f5184e8feb7995bc,10/27/2019 12:16,6/23/2020 21:26,0,5769.15,5769.15,1,Vertical,6,90,0.785,1,0,months8
0349843571f5184e8feb7995bc,10/27/2019 12:16,6/23/2020 21:26,0,5769.15,5769.15,1,Horizontal,0,91,1.183,1,0,months8
0349843571f5184e8feb7995bc,10/27/2019 12:16,6/23/2020 21:26,0,5769.15,5769.15,1,Horizontal,-6,92,0.494,0,0,months8
0349843571f5184e8feb7995bc,10/27/2019 12:16,6/23/2020 21:26,0,5769.15,5769.15,1,Horizontal,8,93,0.966,1,0,months8
0349843571f5184e8feb7995bc,10/27/2019 12:16,6/23/2020 21:26,0,5769.15,5769.15,1,Vertical,-6,94,0.759,0,0,months8
0349843571f5184e8feb7995bc,10/27/2019 12:16,6/23/2020 21:26,0,5769.15,5769.15,1,Vertical,-10,95,0.648,0,0,months8
0349843571f5184e8feb7995bc,10/27/2019 12:16,6/23/2020 21:26,0,5769.15,5769.15,1,Vertical,-8,96,0.521,0,0,months8
0349843571f5184e8feb7995bc,10/27/2019 12:16,6/23/2020 21:26,0,5769.15,5769.15,1,Horizontal,-4,97,0.553,0,0,months8
0349843571f5184e8feb7995bc,10/27/2019 12:16,6/23/2020 21:26,0,5769.15,5769.15,1,Horizontal,-10,98,0.48,0,0,months8
0349843571f5184e8feb7995bc,10/27/2019 12:16,6/23/2020 21:26,0,5769.15,5769.15,1,Horizontal,2,99,0.815,1,0,months8
0349843571f5184e8feb7995bc,10/27/2019 12:16,6/23/2020 21:26,0,5769.15,5769.15,1,Vertical,0,100,0.687,0,0,months8
0349843571f5184e8feb7995bc,10/27/2019 12:16,6/23/2020 21:26,0,5769.15,5769.15,1,Vertical,-4,101,0.512,0,0,months8
0349843571f5184e8feb7995bc,10/27/2019 12:16,6/23/2020 21:26,0,5769.15,5769.15,1,Vertical,-4,102,0.494,0,0,months8
0349843571f5184e8feb7995bc,10/27/2019 12:16,6/23/2020 21:26,0,5769.15,5769.15,1,Horizontal,4,103,0.557,1,0,months8
0349843571f5184e8feb7995bc,10/27/2019 12:16,6/23/2020 21:26,0,5769.15,5769.15,1,Horizontal,-6,104,0.506,0,0,months8
0349843571f5184e8feb7995bc,10/27/2019 12:16,6/23/2020 21:26,0,5769.15,5769.15,1,Horizontal,-10,105,0.502,0,0,months8
0349843571f5184e8feb7995bc,10/27/2019 12:16,6/23/2020 21:26,0,5769.15,5769.15,1,Vertical,-6,106,0.513,0,0,months8
0349843571f5184e8feb7995bc,10/27/2019 12:16,6/23/2020 21:26,0,5769.15,5769.15,1,Vertical,8,107,0.712,1,0,months8
0349843571f5184e8feb7995bc,10/27/2019 12:16,6/23/2020 21:26,0,5769.15,5769.15,1,Vertical,4,108,0.918,1,0,months8
0349843571f5184e8feb7995bc,10/27/2019 12:16,6/23/2020 21:26,0,5769.15,5769.15,1,Horizontal,2,109,0.561,1,0,months8
0349843571f5184e8feb7995bc,10/27/2019 12:16,6/23/2020 21:26,0,5769.15,5769.15,1,Horizontal,8,110,0.568,1,0,months8
0349843571f5184e8feb7995bc,10/27/2019 12:16,6/23/2020 21:26,0,5769.15,5769.15,1,Horizontal,-10,111,0.525,0,0,months8
0349843571f5184e8feb7995bc,10/27/2019 12:16,6/23/2020 21:26,0,5769.15,5769.15,1,Vertical,-8,112,0.601,0,0,months8
0349843571f5184e8feb7995bc,10/27/2019 12:16,6/23/2020 21:26,0,5769.15,5769.15,1,Vertical,-2,113,0.96,0,0,months8
0349843571f5184e8feb7995bc,10/27/2019 12:16,6/23/2020 21:26,0,5769.15,5769.15,1,Vertical,-6,114,0.535,0,0,months8
0349843571f5184e8feb7995bc,10/27/2019 12:16,6/23/2020 21:26,0,5769.15,5769.15,1,Horizontal,0,115,0.488,1,0,months8
0349843571f5184e8feb7995bc,10/27/2019 12:16,6/23/2020 21:26,0,5769.15,5769.15,1,Horizontal,10,116,0.543,1,0,months8
0349843571f5184e8feb7995bc,10/27/2019 12:16,6/23/2020 21:26,0,5769.15,5769.15,1,Horizontal,6,117,0.434,1,0,months8
0349843571f5184e8feb7995bc,10/27/2019 12:16,6/23/2020 21:26,0,5769.15,5769.15,1,Vertical,0,118,0.785,0,0,months8
0349843571f5184e8feb7995bc,10/27/2019 12:16,6/23/2020 21:26,0,5769.15,5769.15,1,Vertical,10,119,0.732,1,0,months8
0349843571f5184e8feb7995bc,10/27/2019 12:16,6/23/2020 21:26,0,5769.15,5769.15,1,Vertical,10,120,0.703,1,0,months8
0349843571f5184e8feb7995bc,10/27/2019 12:16,6/23/2020 21:26,0,5769.15,5769.15,1,Horizontal,6,121,1.117,1,0,months8
0349843571f5184e8feb7995bc,10/27/2019 12:16,6/23/2020 21:26,0,5769.15,5769.15,1,Horizontal,-2,122,1.034,0,0,months8
0349843571f5184e8feb7995bc,10/27/2019 12:16,6/23/2020 21:26,0,5769.15,5769.15,1,Horizontal,4,123,0.57,1,0,months8
0349843571f5184e8feb7995bc,10/27/2019 12:16,6/23/2020 21:26,0,5769.15,5769.15,1,Vertical,0,124,0.69,0,0,months8
0349843571f5184e8feb7995bc,10/27/2019 12:16,6/23/2020 21:26,0,5769.15,5769.15,1,Vertical,6,125,0.797,1,0,months8
0349843571f5184e8feb7995bc,10/27/2019 12:16,6/23/2020 21:26,0,5769.15,5769.15,1,Vertical,-6,126,0.564,0,0,months8
0349843571f5184e8feb7995bc,10/27/2019 12:16,6/23/2020 21:26,0,5769.15,5769.15,1,Horizontal,0,127,0.94,1,0,months8
0349843571f5184e8feb7995bc,10/27/2019 12:16,6/23/2020 21:26,0,5769.15,5769.15,1,Horizontal,6,128,0.632,1,0,months8
0349843571f5184e8feb7995bc,10/27/2019 12:16,6/23/2020 21:26,0,5769.15,5769.15,1,Horizontal,6,129,0.543,1,0,months8
0349843571f5184e8feb7995bc,10/27/2019 12:16,6/23/2020 21:26,0,5769.15,5769.15,1,Vertical,-2,130,0.652,0,0,months8
0349843571f5184e8feb7995bc,10/27/2019 12:16,6/23/2020 21:26,0,5769.15,5769.15,1,Vertical,6,131,0.683,1,0,months8
0349843571f5184e8feb7995bc,10/27/2019 12:16,6/23/2020 21:26,0,5769.15,5769.15,1,Vertical,4,132,0.891,1,0,months8
0349843571f5184e8feb7995bc,10/27/2019 12:16,6/23/2020 21:26,0,5769.15,5769.15,1,Horizontal,0,133,1.402,0,0,months8
0349843571f5184e8feb7995bc,10/27/2019 12:16,6/23/2020 21:26,0,5769.15,5769.15,1,Horizontal,-2,134,0.907,1,0,months8
0349843571f5184e8feb7995bc,10/27/2019 12:16,6/23/2020 21:26,0,5769.15,5769.15,1,Horizontal,-4,135,0.869,0,0,months8
0349843571f5184e8feb7995bc,10/27/2019 12:16,6/23/2020 21:26,0,5769.15,5769.15,1,Vertical,0,136,1.018,0,0,months8
0349843571f5184e8feb7995bc,10/27/2019 12:16,6/23/2020 21:26,0,5769.15,5769.15,1,Vertical,2,137,0.84,1,0,months8
0349843571f5184e8feb7995bc,10/27/2019 12:16,6/23/2020 21:26,0,5769.15,5769.15,1,Vertical,10,138,0.541,1,0,months8
0349843571f5184e8feb7995bc,10/27/2019 12:16,6/23/2020 21:26,0,5769.15,5769.15,1,Horizontal,-6,139,0.623,0,0,months8
0349843571f5184e8feb7995bc,10/27/2019 12:16,6/23/2020 21:26,0,5769.15,5769.15,1,Horizontal,8,140,0.54,1,0,months8
0349843571f5184e8feb7995bc,10/27/2019 12:16,6/23/2020 21:26,0,5769.15,5769.15,1,Horizontal,4,141,0.474,1,0,months8
0349843571f5184e8feb7995bc,10/27/2019 12:16,6/23/2020 21:26,0,5769.15,5769.15,1,Vertical,0,142,0.877,0,0,months8
0349843571f5184e8feb7995bc,10/27/2019 12:16,6/23/2020 21:26,0,5769.15,5769.15,1,Vertical,-4,143,0.783,0,0,months8
0349843571f5184e8feb7995bc,10/27/2019 12:16,6/23/2020 21:26,0,5769.15,5769.15,1,Vertical,2,144,1.065,0,0,months8
0349843571f5184e8feb7995bc,10/27/2019 12:16,6/23/2020 21:26,0,5769.15,5769.15,1,Horizontal,0,145,1.198,1,0,months8
0349843571f5184e8feb7995bc,10/27/2019 12:16,6/23/2020 21:26,0,5769.15,5769.15,1,Horizontal,2,146,0.568,1,0,months8
0349843571f5184e8feb7995bc,10/27/2019 12:16,6/23/2020 21:26,0,5769.15,5769.15,1,Horizontal,2,147,1.013,1,0,months8
0349843571f5184e8feb7995bc,10/27/2019 12:16,6/23/2020 21:26,0,5769.15,5769.15,1,Vertical,-8,148,0.691,0,0,months8
0349843571f5184e8feb7995bc,10/27/2019 12:16,6/23/2020 21:26,0,5769.15,5769.15,1,Vertical,-10,149,0.604,0,0,months8
0349843571f5184e8feb7995bc,10/27/2019 12:16,6/23/2020 21:26,0,5769.15,5769.15,1,Vertical,-2,150,0.521,0,0,months8
0349843571f5184e8feb7995bc,10/27/2019 12:16,6/23/2020 21:26,0,5769.15,5769.15,1,Horizontal,-4,151,1.932,0,0,months8
0349843571f5184e8feb7995bc,10/27/2019 12:16,6/23/2020 21:26,0,5769.15,5769.15,1,Horizontal,-10,152,0.679,0,0,months8
0349843571f5184e8feb7995bc,10/27/2019 12:16,6/23/2020 21:26,0,5769.15,5769.15,1,Horizontal,2,153,0.613,1,0,months8
0349843571f5184e8feb7995bc,10/27/2019 12:16,6/23/2020 21:26,0,5769.15,5769.15,1,Vertical,0,154,1.002,0,0,months8
0349843571f5184e8feb7995bc,10/27/2019 12:16,6/23/2020 21:26,0,5769.15,5769.15,1,Vertical,-8,155,0.446,0,0,months8
0349843571f5184e8feb7995bc,10/27/2019 12:16,6/23/2020 21:26,0,5769.15,5769.15,1,Vertical,2,156,0.856,0,0,months8
0349843571f5184e8feb7995bc,10/27/2019 12:16,6/23/2020 21:26,0,5769.15,5769.15,1,Horizontal,0,157,1.514,1,0,months8
0349843571f5184e8feb7995bc,10/27/2019 12:16,6/23/2020 21:26,0,5769.15,5769.15,1,Horizontal,4,158,0.518,1,0,months8
0349843571f5184e8feb7995bc,10/27/2019 12:16,6/23/2020 21:26,0,5769.15,5769.15,1,Horizontal,-2,159,0.855,0,0,months8
0349843571f5184e8feb7995bc,10/27/2019 12:16,6/23/2020 21:26,0,5769.15,5769.15,1,Vertical,8,160,0.391,1,0,months8
0349843571f5184e8feb7995bc,10/27/2019 12:16,6/23/2020 21:26,0,5769.15,5769.15,1,Vertical,-6,161,0.6,0,0,months8
0349843571f5184e8feb7995bc,10/27/2019 12:16,6/23/2020 21:26,0,5769.15,5769.15,1,Vertical,-4,162,0.852,0,0,months8
0349843571f5184e8feb7995bc,10/27/2019 12:16,6/23/2020 21:26,0,5769.15,5769.15,1,Horizontal,2,163,0.532,1,0,months8
0349843571f5184e8feb7995bc,10/27/2019 12:16,6/23/2020 21:26,0,5769.15,5769.15,1,Horizontal,8,164,0.466,1,0,months8
0349843571f5184e8feb7995bc,10/27/2019 12:16,6/23/2020 21:26,0,5769.15,5769.15,1,Horizontal,-8,165,0.474,0,0,months8
0349843571f5184e8feb7995bc,10/27/2019 12:16,6/23/2020 21:26,0,5769.15,5769.15,1,Vertical,-10,166,0.474,0,0,months8
0349843571f5184e8feb7995bc,10/27/2019 12:16,6/23/2020 21:26,0,5769.15,5769.15,1,Vertical,10,167,0.69,1,0,months8
0349843571f5184e8feb7995bc,10/27/2019 12:16,6/23/2020 21:26,0,5769.15,5769.15,1,Vertical,-4,168,0.572,0,0,months8
0349843571f5184e8feb7995bc,10/27/2019 12:16,6/23/2020 21:26,0,5769.15,5769.15,1,Horizontal,8,169,0.5,1,0,months8
0349843571f5184e8feb7995bc,10/27/2019 12:16,6/23/2020 21:26,0,5769.15,5769.15,1,Horizontal,8,170,0.462,1,0,months8
0349843571f5184e8feb7995bc,10/27/2019 12:16,6/23/2020 21:26,0,5769.15,5769.15,1,Horizontal,-8,171,0.498,0,0,months8
0349843571f5184e8feb7995bc,10/27/2019 12:16,6/23/2020 21:26,0,5769.15,5769.15,1,Vertical,0,172,0.597,0,0,months8
0349843571f5184e8feb7995bc,10/27/2019 12:16,6/23/2020 21:26,0,5769.15,5769.15,1,Vertical,8,173,0.669,1,0,months8
0349843571f5184e8feb7995bc,10/27/2019 12:16,6/23/2020 21:26,0,5769.15,5769.15,1,Vertical,-2,174,0.686,0,0,months8
0349843571f5184e8feb7995bc,10/27/2019 12:16,6/23/2020 21:26,0,5769.15,5769.15,1,Horizontal,0,175,1.323,0,0,months8
0349843571f5184e8feb7995bc,10/27/2019 12:16,6/23/2020 21:26,0,5769.15,5769.15,1,Horizontal,-8,176,0.583,0,0,months8
0349843571f5184e8feb7995bc,10/27/2019 12:16,6/23/2020 21:26,0,5769.15,5769.15,1,Horizontal,-4,177,0.619,0,0,months8
0349843571f5184e8feb7995bc,10/27/2019 12:16,6/23/2020 21:26,0,5769.15,5769.15,1,Vertical,8,178,0.704,1,0,months8
0349843571f5184e8feb7995bc,10/27/2019 12:16,6/23/2020 21:26,0,5769.15,5769.15,1,Vertical,-8,179,0.513,0,0,months8
0349843571f5184e8feb7995bc,10/27/2019 12:16,6/23/2020 21:26,0,5769.15,5769.15,1,Vertical,2,180,0.495,0,0,months8
0349843571f5184e8feb7995bc,10/27/2019 12:16,6/23/2020 21:26,0,5769.15,5769.15,1,Horizontal,10,181,0.965,1,0,months8
0349843571f5184e8feb7995bc,10/27/2019 12:16,6/23/2020 21:26,0,5769.15,5769.15,1,Horizontal,-6,182,0.851,0,0,months8
0349843571f5184e8feb7995bc,10/27/2019 12:16,6/23/2020 21:26,0,5769.15,5769.15,1,Horizontal,4,183,0.6,1,0,months8
0349843571f5184e8feb7995bc,10/27/2019 12:16,6/23/2020 21:26,0,5769.15,5769.15,1,Vertical,-6,184,0.789,0,0,months8
0349843571f5184e8feb7995bc,10/27/2019 12:16,6/23/2020 21:26,0,5769.15,5769.15,1,Vertical,-6,185,0.561,0,0,months8
0349843571f5184e8feb7995bc,10/27/2019 12:16,6/23/2020 21:26,0,5769.15,5769.15,1,Vertical,-10,186,0.573,0,0,months8
0349843571f5184e8feb7995bc,10/27/2019 12:16,6/23/2020 21:26,0,5769.15,5769.15,1,Horizontal,8,187,0.601,1,0,months8
0349843571f5184e8feb7995bc,10/27/2019 12:16,6/23/2020 21:26,0,5769.15,5769.15,1,Horizontal,-6,188,0.593,0,0,months8
0349843571f5184e8feb7995bc,10/27/2019 12:16,6/23/2020 21:26,0,5769.15,5769.15,1,Horizontal,-6,189,0.678,0,0,months8
0349843571f5184e8feb7995bc,10/27/2019 12:16,6/23/2020 21:26,0,5769.15,5769.15,1,Vertical,0,190,0.961,0,0,months8
0349843571f5184e8feb7995bc,10/27/2019 12:16,6/23/2020 21:26,0,5769.15,5769.15,1,Vertical,6,191,0.609,1,0,months8
0349843571f5184e8feb7995bc,10/27/2019 12:16,6/23/2020 21:26,0,5769.15,5769.15,1,Vertical,10,192,0.77,1,0,months8
0349843571f5184e8feb7995bc,10/27/2019 12:16,6/23/2020 21:26,0,5769.15,5769.15,1,Horizontal,0,193,3.144,1,0,months8
0349843571f5184e8feb7995bc,10/27/2019 12:16,6/23/2020 21:26,0,5769.15,5769.15,1,Horizontal,6,194,0.533,1,0,months8
0349843571f5184e8feb7995bc,10/27/2019 12:16,6/23/2020 21:26,0,5769.15,5769.15,1,Horizontal,2,195,1.062,1,0,months8
0349843571f5184e8feb7995bc,10/27/2019 12:16,6/23/2020 21:26,0,5769.15,5769.15,1,Vertical,-8,196,0.567,0,0,months8
0349843571f5184e8feb7995bc,10/27/2019 12:16,6/23/2020 21:26,0,5769.15,5769.15,1,Vertical,-4,197,0.857,0,0,months8
0349843571f5184e8feb7995bc,10/27/2019 12:16,6/23/2020 21:26,0,5769.15,5769.15,1,Vertical,8,198,1.268,1,0,months8
0349843571f5184e8feb7995bc,10/27/2019 12:16,6/23/2020 21:26,0,5769.15,5769.15,1,Horizontal,0,199,1.512,0,0,months8
0349843571f5184e8feb7995bc,10/27/2019 12:16,6/23/2020 21:26,0,5769.15,5769.15,1,Horizontal,-10,200,0.542,0,0,months8
0349843571f5184e8feb7995bc,10/27/2019 12:16,6/23/2020 21:26,0,5769.15,5769.15,1,Horizontal,-8,201,0.57,0,0,months8
0349843571f5184e8feb7995bc,10/27/2019 12:16,6/23/2020 21:26,0,5769.15,5769.15,1,Vertical,-8,202,0.602,0,0,months8
0349843571f5184e8feb7995bc,10/27/2019 12:16,6/23/2020 21:26,0,5769.15,5769.15,1,Vertical,4,203,0.721,0,0,months8
0349843571f5184e8feb7995bc,10/27/2019 12:16,6/23/2020 21:26,0,5769.15,5769.15,1,Vertical,4,204,0.885,0,0,months8
0349843571f5184e8feb7995bc,10/27/2019 12:16,6/23/2020 21:26,0,5769.15,5769.15,1,Horizontal,0,205,1.596,1,0,months8
0349843571f5184e8feb7995bc,10/27/2019 12:16,6/23/2020 21:26,0,5769.15,5769.15,1,Horizontal,10,206,0.651,1,0,months8
0349843571f5184e8feb7995bc,10/27/2019 12:16,6/23/2020 21:26,0,5769.15,5769.15,1,Horizontal,-2,207,1.624,0,0,months8
0349843571f5184e8feb7995bc,10/27/2019 12:16,6/23/2020 21:26,0,5769.15,5769.15,1,Vertical,0,208,0.563,0,0,months8
0349843571f5184e8feb7995bc,10/27/2019 12:16,6/23/2020 21:26,0,5769.15,5769.15,1,Vertical,4,209,0.87,0,0,months8
0349843571f5184e8feb7995bc,10/27/2019 12:16,6/23/2020 21:26,0,5769.15,5769.15,1,Vertical,8,210,0.732,1,0,months8
0349843571f5184e8feb7995bc,10/27/2019 12:16,6/23/2020 21:26,0,5769.15,5769.15,1,Horizontal,6,211,0.934,1,0,months8
0349843571f5184e8feb7995bc,10/27/2019 12:16,6/23/2020 21:26,0,5769.15,5769.15,1,Horizontal,-8,212,0.625,0,0,months8
0349843571f5184e8feb7995bc,10/27/2019 12:16,6/23/2020 21:26,0,5769.15,5769.15,1,Horizontal,-10,213,0.512,0,0,months8
0349843571f5184e8feb7995bc,10/27/2019 12:16,6/23/2020 21:26,0,5769.15,5769.15,1,Vertical,0,214,0.968,0,0,months8
0349843571f5184e8feb7995bc,10/27/2019 12:16,6/23/2020 21:26,0,5769.15,5769.15,1,Vertical,10,215,0.695,1,0,months8
0349843571f5184e8feb7995bc,10/27/2019 12:16,6/23/2020 21:26,0,5769.15,5769.15,1,Vertical,4,216,1.062,1,0,months8
0349843571f5184e8feb7995bc,10/27/2019 12:16,6/23/2020 21:26,0,5769.15,5769.15,1,Horizontal,0,217,0.631,1,0,months8
0349843571f5184e8feb7995bc,10/27/2019 12:16,6/23/2020 21:26,0,5769.15,5769.15,1,Horizontal,-4,218,0.616,0,0,months8
0349843571f5184e8feb7995bc,10/27/2019 12:16,6/23/2020 21:26,0,5769.15,5769.15,1,Horizontal,10,219,0.575,1,0,months8
0349843571f5184e8feb7995bc,10/27/2019 12:16,6/23/2020 21:26,0,5769.15,5769.15,1,Vertical,2,220,0.995,0,0,months8
0349843571f5184e8feb7995bc,10/27/2019 12:16,6/23/2020 21:26,0,5769.15,5769.15,1,Vertical,-4,221,0.567,0,0,months8
0349843571f5184e8feb7995bc,10/27/2019 12:16,6/23/2020 21:26,0,5769.15,5769.15,1,Vertical,-2,222,0.648,0,0,months8
0349843571f5184e8feb7995bc,10/27/2019 12:16,6/23/2020 21:26,0,5769.15,5769.15,1,Horizontal,0,223,0.541,1,0,months8
0349843571f5184e8feb7995bc,10/27/2019 12:16,6/23/2020 21:26,0,5769.15,5769.15,1,Horizontal,10,224,0.535,1,0,months8
0349843571f5184e8feb7995bc,10/27/2019 12:16,6/23/2020 21:26,0,5769.15,5769.15,1,Horizontal,-10,225,0.485,0,0,months8
0349843571f5184e8feb7995bc,10/27/2019 12:16,6/23/2020 21:26,0,5769.15,5769.15,1,Vertical,0,226,0.932,0,0,months8
0349843571f5184e8feb7995bc,10/27/2019 12:16,6/23/2020 21:26,0,5769.15,5769.15,1,Vertical,6,227,1.167,1,0,months8
0349843571f5184e8feb7995bc,10/27/2019 12:16,6/23/2020 21:26,0,5769.15,5769.15,1,Vertical,6,228,0.699,1,0,months8
0349843571f5184e8feb7995bc,10/27/2019 12:16,6/23/2020 21:26,0,5769.15,5769.15,1,Horizontal,-10,229,0.488,0,0,months8
0349843571f5184e8feb7995bc,10/27/2019 12:16,6/23/2020 21:26,0,5769.15,5769.15,1,Horizontal,10,230,0.519,1,0,months8
0349843571f5184e8feb7995bc,10/27/2019 12:16,6/23/2020 21:26,0,5769.15,5769.15,1,Horizontal,4,231,1.332,1,0,months8
0349843571f5184e8feb7995bc,10/27/2019 12:16,6/23/2020 21:26,0,5769.15,5769.15,1,Vertical,0,232,0.647,0,0,months8
0349843571f5184e8feb7995bc,10/27/2019 12:16,6/23/2020 21:26,0,5769.15,5769.15,1,Vertical,-6,233,0.485,0,0,months8
0349843571f5184e8feb7995bc,10/27/2019 12:16,6/23/2020 21:26,0,5769.15,5769.15,1,Vertical,-2,234,1.155,0,0,months8
0349843571f5184e8feb7995bc,10/27/2019 12:16,6/23/2020 21:26,0,5769.15,5769.15,1,Horizontal,-2,235,1.833,0,0,months8
0349843571f5184e8feb7995bc,10/27/2019 12:16,6/23/2020 21:26,0,5769.15,5769.15,1,Horizontal,-4,236,0.775,0,0,months8
0349843571f5184e8feb7995bc,10/27/2019 12:16,6/23/2020 21:26,0,5769.15,5769.15,1,Horizontal,-6,237,0.491,0,0,months8
0349843571f5184e8feb7995bc,10/27/2019 12:16,6/23/2020 21:26,0,5769.15,5769.15,1,Vertical,-10,238,0.673,0,0,months8
0349843571f5184e8feb7995bc,10/27/2019 12:16,6/23/2020 21:26,0,5769.15,5769.15,1,Vertical,10,239,0.718,1,0,months8
0349843571f5184e8feb7995bc,10/27/2019 12:16,6/23/2020 21:26,0,5769.15,5769.15,1,Vertical,-10,240,0.58,0,0,months8
0349843571f5184e8feb7995bc,10/27/2019 12:16,6/23/2020 21:26,0,5769.15,5769.15,1,Horizontal,10,241,1.917,1,0,months8
0349843571f5184e8feb7995bc,10/27/2019 12:16,6/23/2020 21:26,0,5769.15,5769.15,1,Horizontal,-6,242,0.6,0,0,months8
0349843571f5184e8feb7995bc,10/27/2019 12:16,6/23/2020 21:26,0,5769.15,5769.15,1,Horizontal,-10,243,0.456,0,0,months8
0349843571f5184e8feb7995bc,10/27/2019 12:16,6/23/2020 21:26,0,5769.15,5769.15,1,Vertical,-4,244,0.894,0,0,months8
0349843571f5184e8feb7995bc,10/27/2019 12:16,6/23/2020 21:26,0,5769.15,5769.15,1,Vertical,10,245,0.596,1,0,months8
0349843571f5184e8feb7995bc,10/27/2019 12:16,6/23/2020 21:26,0,5769.15,5769.15,1,Vertical,-10,246,0.485,0,0,months8
0349843571f5184e8feb7995bc,10/27/2019 12:16,6/23/2020 21:26,0,5769.15,5769.15,1,Horizontal,0,247,1.617,1,0,months8
0349843571f5184e8feb7995bc,10/27/2019 12:16,6/23/2020 21:26,0,5769.15,5769.15,1,Horizontal,-4,248,0.782,0,0,months8
0349843571f5184e8feb7995bc,10/27/2019 12:16,6/23/2020 21:26,0,5769.15,5769.15,1,Horizontal,-2,249,0.776,0,0,months8
0349843571f5184e8feb7995bc,10/27/2019 12:16,6/23/2020 21:26,0,5769.15,5769.15,1,Vertical,2,250,1.215,0,0,months8
0349843571f5184e8feb7995bc,10/27/2019 12:16,6/23/2020 21:26,0,5769.15,5769.15,1,Vertical,-4,251,0.575,0,0,months8
0349843571f5184e8feb7995bc,10/27/2019 12:16,6/23/2020 21:26,0,5769.15,5769.15,1,Vertical,6,252,0.717,1,0,months8
0349843571f5184e8feb7995bc,10/27/2019 12:16,6/23/2020 21:26,0,5769.15,5769.15,1,Horizontal,0,253,2.712,1,0,months8
0349843571f5184e8feb7995bc,10/27/2019 12:16,6/23/2020 21:26,0,5769.15,5769.15,1,Horizontal,-2,254,0.928,0,0,months8
0349843571f5184e8feb7995bc,10/27/2019 12:16,6/23/2020 21:26,0,5769.15,5769.15,1,Horizontal,10,255,0.573,1,0,months8
0349843571f5184e8feb7995bc,10/27/2019 12:16,6/23/2020 21:26,0,5769.15,5769.15,1,Vertical,0,256,1.416,0,0,months8
0349843571f5184e8feb7995bc,10/27/2019 12:16,6/23/2020 21:26,0,5769.15,5769.15,1,Vertical,2,257,4.523,1,0,months8
0349843571f5184e8feb7995bc,10/27/2019 12:16,6/23/2020 21:26,0,5769.15,5769.15,1,Vertical,-10,258,0.686,0,0,months8
0349843571f5184e8feb7995bc,10/27/2019 12:16,6/23/2020 21:26,0,5769.15,5769.15,1,Horizontal,4,259,0.664,1,0,months8
0349843571f5184e8feb7995bc,10/27/2019 12:16,6/23/2020 21:26,0,5769.15,5769.15,1,Horizontal,-8,260,0.568,0,0,months8
0349843571f5184e8feb7995bc,10/27/2019 12:16,6/23/2020 21:26,0,5769.15,5769.15,1,Horizontal,4,261,0.503,1,0,months8
0349843571f5184e8feb7995bc,10/27/2019 12:16,6/23/2020 21:26,0,5769.15,5769.15,1,Vertical,6,262,1.662,1,0,months8
0349843571f5184e8feb7995bc,10/27/2019 12:16,6/23/2020 21:26,0,5769.15,5769.15,1,Vertical,10,263,0.775,1,0,months8
0349843571f5184e8feb7995bc,10/27/2019 12:16,6/23/2020 21:26,0,5769.15,5769.15,1,Vertical,-2,264,0.874,0,0,months8
0349843571f5184e8feb7995bc,10/27/2019 12:16,6/23/2020 21:26,0,5769.15,5769.15,1,Horizontal,0,265,2.179,0,0,months8
0349843571f5184e8feb7995bc,10/27/2019 12:16,6/23/2020 21:26,0,5769.15,5769.15,1,Horizontal,4,266,0.874,1,0,months8
0349843571f5184e8feb7995bc,10/27/2019 12:16,6/23/2020 21:26,0,5769.15,5769.15,1,Horizontal,-4,267,0.593,0,0,months8
0349843571f5184e8feb7995bc,10/27/2019 12:16,6/23/2020 21:26,0,5769.15,5769.15,1,Vertical,0,268,1.316,0,0,months8
0349843571f5184e8feb7995bc,10/27/2019 12:16,6/23/2020 21:26,0,5769.15,5769.15,1,Vertical,-2,269,0.922,0,0,months8
0349843571f5184e8feb7995bc,10/27/2019 12:16,6/23/2020 21:26,0,5769.15,5769.15,1,Vertical,4,270,0.756,0,0,months8
0349843571f5184e8feb7995bc,10/27/2019 12:16,6/23/2020 21:26,0,5769.15,5769.15,1,Horizontal,-8,271,0.674,0,0,months8
0349843571f5184e8feb7995bc,10/27/2019 12:16,6/23/2020 21:26,0,5769.15,5769.15,1,Horizontal,-8,272,0.642,0,0,months8
0349843571f5184e8feb7995bc,10/27/2019 12:16,6/23/2020 21:26,0,5769.15,5769.15,1,Horizontal,6,273,0.552,1,0,months8
0349843571f5184e8feb7995bc,10/27/2019 12:16,6/23/2020 21:26,0,5769.15,5769.15,1,Vertical,-10,274,0.591,0,0,months8
0349843571f5184e8feb7995bc,10/27/2019 12:16,6/23/2020 21:26,0,5769.15,5769.15,1,Vertical,2,275,2.06,1,0,months8
0349843571f5184e8feb7995bc,10/27/2019 12:16,6/23/2020 21:26,0,5769.15,5769.15,1,Vertical,-2,276,0.927,0,0,months8
0349843571f5184e8feb7995bc,10/27/2019 12:16,6/23/2020 21:26,0,5769.15,5769.15,1,Horizontal,0,277,1.311,0,0,months8
0349843571f5184e8feb7995bc,10/27/2019 12:16,6/23/2020 21:26,0,5769.15,5769.15,1,Horizontal,-4,278,0.709,0,0,months8
0349843571f5184e8feb7995bc,10/27/2019 12:16,6/23/2020 21:26,0,5769.15,5769.15,1,Horizontal,-6,279,0.586,0,0,months8
0349843571f5184e8feb7995bc,10/27/2019 12:16,6/23/2020 21:26,0,5769.15,5769.15,1,Vertical,0,280,0.592,0,0,months8
0349843571f5184e8feb7995bc,10/27/2019 12:16,6/23/2020 21:26,0,5769.15,5769.15,1,Vertical,10,281,0.889,1,0,months8
0349843571f5184e8feb7995bc,10/27/2019 12:16,6/23/2020 21:26,0,5769.15,5769.15,1,Vertical,-4,282,0.649,0,0,months8
0349843571f5184e8feb7995bc,10/27/2019 12:16,6/23/2020 21:26,0,5769.15,5769.15,1,Horizontal,4,283,0.597,1,0,months8
0349843571f5184e8feb7995bc,10/27/2019 12:16,6/23/2020 21:26,0,5769.15,5769.15,1,Horizontal,6,284,0.501,1,0,months8
0349843571f5184e8feb7995bc,10/27/2019 12:16,6/23/2020 21:26,0,5769.15,5769.15,1,Horizontal,10,285,0.517,1,0,months8
0349843571f5184e8feb7995bc,10/27/2019 12:16,6/23/2020 21:26,0,5769.15,5769.15,1,Vertical,0,286,0.956,0,0,months8
0349843571f5184e8feb7995bc,10/27/2019 12:16,6/23/2020 21:26,0,5769.15,5769.15,1,Vertical,-8,287,0.578,0,0,months8
0349843571f5184e8feb7995bc,10/27/2019 12:16,6/23/2020 21:26,0,5769.15,5769.15,1,Vertical,8,288,1.022,1,0,months8
0349843571f5184e8feb7995bc,10/27/2019 12:16,6/23/2020 21:26,0,5769.15,5769.15,1,Horizontal,0,289,2.226,1,0,months8
0349843571f5184e8feb7995bc,10/27/2019 12:16,6/23/2020 21:26,0,5769.15,5769.15,1,Horizontal,2,290,0.981,1,0,months8
0349843571f5184e8feb7995bc,10/27/2019 12:16,6/23/2020 21:26,0,5769.15,5769.15,1,Horizontal,-2,291,0.78,0,0,months8
0349843571f5184e8feb7995bc,10/27/2019 12:16,6/23/2020 21:26,0,5769.15,5769.15,1,Vertical,4,292,2.091,1,0,months8
0349843571f5184e8feb7995bc,10/27/2019 12:16,6/23/2020 21:26,0,5769.15,5769.15,1,Vertical,-6,293,0.917,0,0,months8
0349843571f5184e8feb7995bc,10/27/2019 12:16,6/23/2020 21:26,0,5769.15,5769.15,1,Vertical,4,294,2.002,1,0,months8
0349843571f5184e8feb7995bc,10/27/2019 12:16,6/23/2020 21:26,0,5769.15,5769.15,1,Horizontal,-2,295,1.106,0,0,months8
0349843571f5184e8feb7995bc,10/27/2019 12:16,6/23/2020 21:26,0,5769.15,5769.15,1,Horizontal,-8,296,0.56,0,0,months8
0349843571f5184e8feb7995bc,10/27/2019 12:16,6/23/2020 21:26,0,5769.15,5769.15,1,Horizontal,2,297,1.684,1,0,months8
0349843571f5184e8feb7995bc,10/27/2019 12:16,6/23/2020 21:26,0,5769.15,5769.15,1,Vertical,0,298,1.003,0,0,months8
0349843571f5184e8feb7995bc,10/27/2019 12:16,6/23/2020 21:26,0,5769.15,5769.15,1,Vertical,4,299,1.023,1,0,months8
0349843571f5184e8feb7995bc,10/27/2019 12:16,6/23/2020 21:26,0,5769.15,5769.15,1,Vertical,6,300,1.24,1,0,months8
0349843571f5184e8feb7995bc,10/27/2019 12:16,6/23/2020 21:26,0,5769.15,5769.15,1,Horizontal,0,301,3.122,1,0,months8
0349843571f5184e8feb7995bc,10/27/2019 12:16,6/23/2020 21:26,0,5769.15,5769.15,1,Horizontal,6,302,0.843,1,0,months8
0349843571f5184e8feb7995bc,10/27/2019 12:16,6/23/2020 21:26,0,5769.15,5769.15,1,Horizontal,8,303,0.622,1,0,months8
0349843571f5184e8feb7995bc,10/27/2019 12:16,6/23/2020 21:26,0,5769.15,5769.15,1,Vertical,0,304,0.927,0,0,months8
0349843571f5184e8feb7995bc,10/27/2019 12:16,6/23/2020 21:26,0,5769.15,5769.15,1,Vertical,8,305,0.845,1,0,months8
0349843571f5184e8feb7995bc,10/27/2019 12:16,6/23/2020 21:26,0,5769.15,5769.15,1,Vertical,8,306,0.769,1,0,months8
0349843571f5184e8feb7995bc,10/27/2019 12:16,6/23/2020 21:26,0,5769.15,5769.15,1,Horizontal,0,307,1.73,0,0,months8
0349843571f5184e8feb7995bc,10/27/2019 12:16,6/23/2020 21:26,0,5769.15,5769.15,1,Horizontal,-10,308,0.516,0,0,months8
0349843571f5184e8feb7995bc,10/27/2019 12:16,6/23/2020 21:26,0,5769.15,5769.15,1,Horizontal,10,309,0.697,1,0,months8
0349843571f5184e8feb7995bc,10/27/2019 12:16,6/23/2020 21:26,0,5769.15,5769.15,1,Vertical,-6,310,0.845,0,0,months8
0349843571f5184e8feb7995bc,10/27/2019 12:16,6/23/2020 21:26,0,5769.15,5769.15,1,Vertical,-8,311,0.684,0,0,months8
0349843571f5184e8feb7995bc,10/27/2019 12:16,6/23/2020 21:26,0,5769.15,5769.15,1,Vertical,-2,312,0.541,0,0,months8
0349843571f5184e8feb7995bc,10/27/2019 12:16,6/23/2020 21:26,0,5769.15,5769.15,1,Horizontal,8,313,0.62,1,0,months8
0349843571f5184e8feb7995bc,10/27/2019 12:16,6/23/2020 21:26,0,5769.15,5769.15,1,Horizontal,-8,314,0.6,0,0,months8
0349843571f5184e8feb7995bc,10/27/2019 12:16,6/23/2020 21:26,0,5769.15,5769.15,1,Horizontal,-2,315,1.236,0,0,months8
0349843571f5184e8feb7995bc,10/27/2019 12:16,6/23/2020 21:26,0,5769.15,5769.15,1,Vertical,0,316,1.524,0,0,months8
0349843571f5184e8feb7995bc,10/27/2019 12:16,6/23/2020 21:26,0,5769.15,5769.15,1,Vertical,8,317,1.137,1,0,months8
0349843571f5184e8feb7995bc,10/27/2019 12:16,6/23/2020 21:26,0,5769.15,5769.15,1,Vertical,-8,318,0.633,0,0,months8
0349843571f5184e8feb7995bc,10/27/2019 12:16,6/23/2020 21:26,0,5769.15,5769.15,1,Horizontal,-6,319,0.568,0,0,months8
0349843571f5184e8feb7995bc,10/27/2019 12:16,6/23/2020 21:26,0,5769.15,5769.15,1,Horizontal,2,320,1.24,1,0,months8
0349843571f5184e8feb7995bc,10/27/2019 12:16,6/23/2020 21:26,0,5769.15,5769.15,1,Horizontal,6,321,0.661,1,0,months8
0349843571f5184e8feb7995bc,10/27/2019 12:16,6/23/2020 21:26,0,5769.15,5769.15,1,Vertical,-10,322,0.771,0,0,months8
0349843571f5184e8feb7995bc,10/27/2019 12:16,6/23/2020 21:26,0,5769.15,5769.15,1,Vertical,2,323,2.087,1,0,months8
0349843571f5184e8feb7995bc,10/27/2019 12:16,6/23/2020 21:26,0,5769.15,5769.15,1,Vertical,2,324,0.805,0,0,months8
0349843571f5184e8feb7995bc,10/27/2019 12:16,6/23/2020 21:26,0,5769.15,5769.15,1,Horizontal,0,325,1.967,1,0,months8
0349843571f5184e8feb7995bc,10/27/2019 12:16,6/23/2020 21:26,0,5769.15,5769.15,1,Horizontal,8,326,0.534,1,0,months8
0349843571f5184e8feb7995bc,10/27/2019 12:16,6/23/2020 21:26,0,5769.15,5769.15,1,Horizontal,-4,327,0.878,0,0,months8
0349843571f5184e8feb7995bc,10/27/2019 12:16,6/23/2020 21:26,0,5769.15,5769.15,1,Vertical,0,328,1.089,0,0,months8
0349843571f5184e8feb7995bc,10/27/2019 12:16,6/23/2020 21:26,0,5769.15,5769.15,1,Vertical,6,329,2.08,1,0,months8
0349843571f5184e8feb7995bc,10/27/2019 12:16,6/23/2020 21:26,0,5769.15,5769.15,1,Vertical,6,330,0.802,1,0,months8
0349843571f5184e8feb7995bc,10/27/2019 12:16,6/23/2020 21:26,0,5769.15,5769.15,1,Horizontal,0,331,2.438,0,0,months8
0349843571f5184e8feb7995bc,10/27/2019 12:16,6/23/2020 21:26,0,5769.15,5769.15,1,Horizontal,-6,332,0.671,0,0,months8
0349843571f5184e8feb7995bc,10/27/2019 12:16,6/23/2020 21:26,0,5769.15,5769.15,1,Horizontal,8,333,0.54,1,0,months8
0349843571f5184e8feb7995bc,10/27/2019 12:16,6/23/2020 21:26,0,5769.15,5769.15,1,Vertical,-6,334,0.87,0,0,months8
0349843571f5184e8feb7995bc,10/27/2019 12:16,6/23/2020 21:26,0,5769.15,5769.15,1,Vertical,-10,335,0.573,0,0,months8
0349843571f5184e8feb7995bc,10/27/2019 12:16,6/23/2020 21:26,0,5769.15,5769.15,1,Vertical,-8,336,0.653,0,0,months8
0349843571f5184e8feb7995bc,10/27/2019 12:16,6/23/2020 21:26,0,5769.15,5769.15,1,Horizontal,-4,337,0.85,0,0,months8
0349843571f5184e8feb7995bc,10/27/2019 12:16,6/23/2020 21:26,0,5769.15,5769.15,1,Horizontal,-10,338,0.977,0,0,months8
0349843571f5184e8feb7995bc,10/27/2019 12:16,6/23/2020 21:26,0,5769.15,5769.15,1,Horizontal,2,339,1.19,1,0,months8
0349843571f5184e8feb7995bc,10/27/2019 12:16,6/23/2020 21:26,0,5769.15,5769.15,1,Vertical,0,340,0.971,0,0,months8
0349843571f5184e8feb7995bc,10/27/2019 12:16,6/23/2020 21:26,0,5769.15,5769.15,1,Vertical,-4,341,0.736,0,0,months8
0349843571f5184e8feb7995bc,10/27/2019 12:16,6/23/2020 21:26,0,5769.15,5769.15,1,Vertical,-4,342,0.513,0,0,months8
0349843571f5184e8feb7995bc,10/27/2019 12:16,6/23/2020 21:26,0,5769.15,5769.15,1,Horizontal,4,343,0.794,1,0,months8
0349843571f5184e8feb7995bc,10/27/2019 12:16,6/23/2020 21:26,0,5769.15,5769.15,1,Horizontal,-6,344,0.695,0,0,months8
0349843571f5184e8feb7995bc,10/27/2019 12:16,6/23/2020 21:26,0,5769.15,5769.15,1,Horizontal,-10,345,0.551,0,0,months8
0349843571f5184e8feb7995bc,10/27/2019 12:16,6/23/2020 21:26,0,5769.15,5769.15,1,Vertical,-6,346,0.842,0,0,months8
0349843571f5184e8feb7995bc,10/27/2019 12:16,6/23/2020 21:26,0,5769.15,5769.15,1,Vertical,8,347,1.217,1,0,months8
0349843571f5184e8feb7995bc,10/27/2019 12:16,6/23/2020 21:26,0,5769.15,5769.15,1,Vertical,4,348,0.813,1,0,months8
0349843571f5184e8feb7995bc,10/27/2019 12:16,6/23/2020 21:26,0,5769.15,5769.15,1,Horizontal,2,349,0.747,1,0,months8
0349843571f5184e8feb7995bc,10/27/2019 12:16,6/23/2020 21:26,0,5769.15,5769.15,1,Horizontal,8,350,0.543,1,0,months8
0349843571f5184e8feb7995bc,10/27/2019 12:16,6/23/2020 21:26,0,5769.15,5769.15,1,Horizontal,-10,351,0.561,0,0,months8
0349843571f5184e8feb7995bc,10/27/2019 12:16,6/23/2020 21:26,0,5769.15,5769.15,1,Vertical,-8,352,0.641,0,0,months8
0349843571f5184e8feb7995bc,10/27/2019 12:16,6/23/2020 21:26,0,5769.15,5769.15,1,Vertical,-2,353,0.937,0,0,months8
0349843571f5184e8feb7995bc,10/27/2019 12:16,6/23/2020 21:26,0,5769.15,5769.15,1,Vertical,-6,354,0.694,0,0,months8
0349843571f5184e8feb7995bc,10/27/2019 12:16,6/23/2020 21:26,0,5769.15,5769.15,1,Horizontal,0,355,4.937,1,0,months8
0349843571f5184e8feb7995bc,10/27/2019 12:16,6/23/2020 21:26,0,5769.15,5769.15,1,Horizontal,10,356,0.617,1,0,months8
0349843571f5184e8feb7995bc,10/27/2019 12:16,6/23/2020 21:26,0,5769.15,5769.15,1,Horizontal,6,357,0.485,1,0,months8
0349843571f5184e8feb7995bc,10/27/2019 12:16,6/23/2020 21:26,0,5769.15,5769.15,1,Vertical,0,358,1.981,0,0,months8
0349843571f5184e8feb7995bc,10/27/2019 12:16,6/23/2020 21:26,0,5769.15,5769.15,1,Vertical,10,359,0.832,1,0,months8
0349843571f5184e8feb7995bc,10/27/2019 12:16,6/23/2020 21:26,0,5769.15,5769.15,1,Vertical,10,360,0.765,1,0,months8
0349843571f5184e8feb7995bc,10/27/2019 12:16,6/23/2020 21:26,0,5769.15,5769.15,1,Horizontal,6,361,0.816,1,0,months8
0349843571f5184e8feb7995bc,10/27/2019 12:16,6/23/2020 21:26,0,5769.15,5769.15,1,Horizontal,-2,362,1.069,0,0,months8
0349843571f5184e8feb7995bc,10/27/2019 12:16,6/23/2020 21:26,0,5769.15,5769.15,1,Horizontal,4,363,0.505,1,0,months8
0349843571f5184e8feb7995bc,10/27/2019 12:16,6/23/2020 21:26,0,5769.15,5769.15,1,Vertical,0,364,1.482,0,0,months8
0349843571f5184e8feb7995bc,10/27/2019 12:16,6/23/2020 21:26,0,5769.15,5769.15,1,Vertical,6,365,1.472,1,0,months8
0349843571f5184e8feb7995bc,10/27/2019 12:16,6/23/2020 21:26,0,5769.15,5769.15,1,Vertical,-6,366,0.797,0,0,months8
0349843571f5184e8feb7995bc,10/27/2019 12:16,6/23/2020 21:26,0,5769.15,5769.15,1,Horizontal,0,367,2.538,1,0,months8
0349843571f5184e8feb7995bc,10/27/2019 12:16,6/23/2020 21:26,0,5769.15,5769.15,1,Horizontal,6,368,0.649,1,0,months8
0349843571f5184e8feb7995bc,10/27/2019 12:16,6/23/2020 21:26,0,5769.15,5769.15,1,Horizontal,6,369,0.614,1,0,months8
0349843571f5184e8feb7995bc,10/27/2019 12:16,6/23/2020 21:26,0,5769.15,5769.15,1,Vertical,-2,370,0.593,0,0,months8
0349843571f5184e8feb7995bc,10/27/2019 12:16,6/23/2020 21:26,0,5769.15,5769.15,1,Vertical,6,371,1.109,1,0,months8
0349843571f5184e8feb7995bc,10/27/2019 12:16,6/23/2020 21:26,0,5769.15,5769.15,1,Vertical,4,372,1.758,1,0,months8
0349843571f5184e8feb7995bc,10/27/2019 12:16,6/23/2020 21:26,0,5769.15,5769.15,1,Horizontal,0,373,2.759,1,0,months8
0349843571f5184e8feb7995bc,10/27/2019 12:16,6/23/2020 21:26,0,5769.15,5769.15,1,Horizontal,-2,374,0.98,0,0,months8
0349843571f5184e8feb7995bc,10/27/2019 12:16,6/23/2020 21:26,0,5769.15,5769.15,1,Horizontal,-4,375,0.589,0,0,months8
0349843571f5184e8feb7995bc,10/27/2019 12:16,6/23/2020 21:26,0,5769.15,5769.15,1,Vertical,0,376,3.955,0,0,months8
0349843571f5184e8feb7995bc,10/27/2019 12:16,6/23/2020 21:26,0,5769.15,5769.15,1,Vertical,2,377,1.43,1,0,months8
0349843571f5184e8feb7995bc,10/27/2019 12:16,6/23/2020 21:26,0,5769.15,5769.15,1,Vertical,10,378,0.763,1,0,months8
0349843571f5184e8feb7995bc,10/27/2019 12:16,6/23/2020 21:26,0,5769.15,5769.15,1,Horizontal,-6,379,0.628,0,0,months8
0349843571f5184e8feb7995bc,10/27/2019 12:16,6/23/2020 21:26,0,5769.15,5769.15,1,Horizontal,8,380,0.588,1,0,months8
0349843571f5184e8feb7995bc,10/27/2019 12:16,6/23/2020 21:26,0,5769.15,5769.15,1,Horizontal,4,381,0.675,1,0,months8
0349843571f5184e8feb7995bc,10/27/2019 12:16,6/23/2020 21:26,0,5769.15,5769.15,1,Vertical,0,382,1.115,0,0,months8
0349843571f5184e8feb7995bc,10/27/2019 12:16,6/23/2020 21:26,0,5769.15,5769.15,1,Vertical,-4,383,0.866,0,0,months8
0349843571f5184e8feb7995bc,10/27/2019 12:16,6/23/2020 21:26,0,5769.15,5769.15,1,Vertical,2,384,2.838,1,0,months8
0349843571f5184e8feb7995bc,10/27/2019 12:16,6/23/2020 21:26,0,5769.15,5769.15,1,Horizontal,0,385,1.755,1,0,months8
0349843571f5184e8feb7995bc,10/27/2019 12:16,6/23/2020 21:26,0,5769.15,5769.15,1,Horizontal,2,386,0.642,1,0,months8
0349843571f5184e8feb7995bc,10/27/2019 12:16,6/23/2020 21:26,0,5769.15,5769.15,1,Horizontal,2,387,1.15,1,0,months8
0349843571f5184e8feb7995bc,10/27/2019 12:16,6/23/2020 21:26,0,5769.15,5769.15,1,Vertical,-8,388,0.77,0,0,months8
0349843571f5184e8feb7995bc,10/27/2019 12:16,6/23/2020 21:26,0,5769.15,5769.15,1,Vertical,-10,389,0.704,0,0,months8
0349843571f5184e8feb7995bc,10/27/2019 12:16,6/23/2020 21:26,0,5769.15,5769.15,1,Vertical,-2,390,1.125,0,0,months8
0349843571f5184e8feb7995bc,10/27/2019 12:16,6/23/2020 21:26,0,5769.15,5769.15,1,Horizontal,-4,391,0.724,0,0,months8
0349843571f5184e8feb7995bc,10/27/2019 12:16,6/23/2020 21:26,0,5769.15,5769.15,1,Horizontal,-10,392,0.523,0,0,months8
0349843571f5184e8feb7995bc,10/27/2019 12:16,6/23/2020 21:26,0,5769.15,5769.15,1,Horizontal,2,393,1.09,1,0,months8
0349843571f5184e8feb7995bc,10/27/2019 12:16,6/23/2020 21:26,0,5769.15,5769.15,1,Vertical,0,394,1.29,0,0,months8
0349843571f5184e8feb7995bc,10/27/2019 12:16,6/23/2020 21:26,0,5769.15,5769.15,1,Vertical,-8,395,0.948,0,0,months8
0349843571f5184e8feb7995bc,10/27/2019 12:16,6/23/2020 21:26,0,5769.15,5769.15,1,Vertical,2,396,3.801,1,0,months8
0349843571f5184e8feb7995bc,10/27/2019 12:16,6/23/2020 21:26,0,5769.15,5769.15,1,Horizontal,0,397,2.389,1,0,months8
0349843571f5184e8feb7995bc,10/27/2019 12:16,6/23/2020 21:26,0,5769.15,5769.15,1,Horizontal,4,398,0.558,1,0,months8
0349843571f5184e8feb7995bc,10/27/2019 12:16,6/23/2020 21:26,0,5769.15,5769.15,1,Horizontal,-2,399,1.104,0,0,months8
0349843571f5184e8feb7995bc,10/27/2019 12:16,6/23/2020 21:26,0,5769.15,5769.15,1,Vertical,8,400,0.778,1,0,months8
0349843571f5184e8feb7995bc,10/27/2019 12:16,6/23/2020 21:26,0,5769.15,5769.15,1,Vertical,-6,401,1.589,0,0,months8
0349843571f5184e8feb7995bc,10/27/2019 12:16,6/23/2020 21:26,0,5769.15,5769.15,1,Vertical,-4,402,0.853,0,0,months8
0349843571f5184e8feb7995bc,10/27/2019 12:16,6/23/2020 21:26,0,5769.15,5769.15,1,Horizontal,2,403,0.549,1,0,months8
0349843571f5184e8feb7995bc,10/27/2019 12:16,6/23/2020 21:26,0,5769.15,5769.15,1,Horizontal,8,404,0.47,1,0,months8
0349843571f5184e8feb7995bc,10/27/2019 12:16,6/23/2020 21:26,0,5769.15,5769.15,1,Horizontal,-8,405,0.568,0,0,months8
0349843571f5184e8feb7995bc,10/27/2019 12:16,6/23/2020 21:26,0,5769.15,5769.15,1,Vertical,-10,406,0.662,0,0,months8
0349843571f5184e8feb7995bc,10/27/2019 12:16,6/23/2020 21:26,0,5769.15,5769.15,1,Vertical,10,407,0.874,1,0,months8
0349843571f5184e8feb7995bc,10/27/2019 12:16,6/23/2020 21:26,0,5769.15,5769.15,1,Vertical,-4,408,1.002,0,0,months8
0349843571f5184e8feb7995bc,10/27/2019 12:16,6/23/2020 21:26,0,5769.15,5769.15,1,Horizontal,8,409,0.568,1,0,months8
0349843571f5184e8feb7995bc,10/27/2019 12:16,6/23/2020 21:26,0,5769.15,5769.15,1,Horizontal,8,410,0.62,1,0,months8
0349843571f5184e8feb7995bc,10/27/2019 12:16,6/23/2020 21:26,0,5769.15,5769.15,1,Horizontal,-8,411,0.57,0,0,months8
0349843571f5184e8feb7995bc,10/27/2019 12:16,6/23/2020 21:26,0,5769.15,5769.15,1,Vertical,0,412,1.288,0,0,months8
0349843571f5184e8feb7995bc,10/27/2019 12:16,6/23/2020 21:26,0,5769.15,5769.15,1,Vertical,8,413,3.733,1,0,months8
0349843571f5184e8feb7995bc,10/27/2019 12:16,6/23/2020 21:26,0,5769.15,5769.15,1,Vertical,-2,414,0.613,0,0,months8
0349843571f5184e8feb7995bc,10/27/2019 12:16,6/23/2020 21:26,0,5769.15,5769.15,1,Horizontal,0,415,1.726,0,0,months8
0349843571f5184e8feb7995bc,10/27/2019 12:16,6/23/2020 21:26,0,5769.15,5769.15,1,Horizontal,-8,416,1.62,0,0,months8
0349843571f5184e8feb7995bc,10/27/2019 12:16,6/23/2020 21:26,0,5769.15,5769.15,1,Horizontal,-4,417,0.701,0,0,months8
0349843571f5184e8feb7995bc,10/27/2019 12:16,6/23/2020 21:26,0,5769.15,5769.15,1,Vertical,8,418,1.365,1,0,months8
0349843571f5184e8feb7995bc,10/27/2019 12:16,6/23/2020 21:26,0,5769.15,5769.15,1,Vertical,-8,419,0.664,0,0,months8
0349843571f5184e8feb7995bc,10/27/2019 12:16,6/23/2020 21:26,0,5769.15,5769.15,1,Vertical,2,420,1.227,0,0,months8
0349843571f5184e8feb7995bc,10/27/2019 12:16,6/23/2020 21:26,0,5769.15,5769.15,1,Horizontal,10,421,0.62,1,0,months8
0349843571f5184e8feb7995bc,10/27/2019 12:16,6/23/2020 21:26,0,5769.15,5769.15,1,Horizontal,-6,422,0.551,0,0,months8
0349843571f5184e8feb7995bc,10/27/2019 12:16,6/23/2020 21:26,0,5769.15,5769.15,1,Horizontal,4,423,0.679,1,0,months8
0349843571f5184e8feb7995bc,10/27/2019 12:16,6/23/2020 21:26,0,5769.15,5769.15,1,Vertical,-6,424,0.696,0,0,months8
0349843571f5184e8feb7995bc,10/27/2019 12:16,6/23/2020 21:26,0,5769.15,5769.15,1,Vertical,-6,425,0.571,0,0,months8
0349843571f5184e8feb7995bc,10/27/2019 12:16,6/23/2020 21:26,0,5769.15,5769.15,1,Vertical,-10,426,0.583,0,0,months8
0349843571f5184e8feb7995bc,10/27/2019 12:16,6/23/2020 21:26,0,5769.15,5769.15,1,Horizontal,8,427,0.58,1,0,months8
0349843571f5184e8feb7995bc,10/27/2019 12:16,6/23/2020 21:26,0,5769.15,5769.15,1,Horizontal,-6,428,0.519,0,0,months8
0349843571f5184e8feb7995bc,10/27/2019 12:16,6/23/2020 21:26,0,5769.15,5769.15,1,Horizontal,-6,429,0.571,0,0,months8
0349843571f5184e8feb7995bc,10/27/2019 12:16,6/23/2020 21:26,0,5769.15,5769.15,1,Vertical,0,430,0.754,0,0,months8
0349843571f5184e8feb7995bc,10/27/2019 12:16,6/23/2020 21:26,0,5769.15,5769.15,1,Vertical,6,431,2.359,1,0,months8
0349843571f5184e8feb7995bc,10/27/2019 12:16,6/23/2020 21:26,0,5769.15,5769.15,1,Vertical,10,432,0.993,1,0,months8
0349843571f5184e8feb7995bc,10/27/2019 12:16,6/23/2020 21:26,0,5769.15,5769.15,1,Horizontal,0,433,1.293,0,0,months8
0349843571f5184e8feb7995bc,10/27/2019 12:16,6/23/2020 21:26,0,5769.15,5769.15,1,Horizontal,6,434,0.656,1,0,months8
0349843571f5184e8feb7995bc,10/27/2019 12:16,6/23/2020 21:26,0,5769.15,5769.15,1,Horizontal,2,435,0.636,1,0,months8
0349843571f5184e8feb7995bc,10/27/2019 12:16,6/23/2020 21:26,0,5769.15,5769.15,1,Vertical,-8,436,0.692,0,0,months8
0349843571f5184e8feb7995bc,10/27/2019 12:16,6/23/2020 21:26,0,5769.15,5769.15,1,Vertical,-4,437,0.514,0,0,months8
0349843571f5184e8feb7995bc,10/27/2019 12:16,6/23/2020 21:26,0,5769.15,5769.15,1,Vertical,8,438,1.891,1,0,months8
0349843571f5184e8feb7995bc,10/27/2019 12:16,6/23/2020 21:26,0,5769.15,5769.15,1,Horizontal,0,439,3.519,1,0,months8
0349843571f5184e8feb7995bc,10/27/2019 12:16,6/23/2020 21:26,0,5769.15,5769.15,1,Horizontal,-10,440,0.597,0,0,months8
0349843571f5184e8feb7995bc,10/27/2019 12:16,6/23/2020 21:26,0,5769.15,5769.15,1,Horizontal,-8,441,0.524,0,0,months8
0349843571f5184e8feb7995bc,10/27/2019 12:16,6/23/2020 21:26,0,5769.15,5769.15,1,Vertical,-8,442,0.708,0,0,months8
0349843571f5184e8feb7995bc,10/27/2019 12:16,6/23/2020 21:26,0,5769.15,5769.15,1,Vertical,4,443,2.032,1,0,months8
0349843571f5184e8feb7995bc,10/27/2019 12:16,6/23/2020 21:26,0,5769.15,5769.15,1,Vertical,4,444,5.856,1,0,months8
0349843571f5184e8feb7995bc,10/27/2019 12:16,6/23/2020 21:26,0,5769.15,5769.15,1,Horizontal,0,445,4.601,1,0,months8
0349843571f5184e8feb7995bc,10/27/2019 12:16,6/23/2020 21:26,0,5769.15,5769.15,1,Horizontal,10,446,0.602,1,0,months8
0349843571f5184e8feb7995bc,10/27/2019 12:16,6/23/2020 21:26,0,5769.15,5769.15,1,Horizontal,-2,447,1.47,0,0,months8
0349843571f5184e8feb7995bc,10/27/2019 12:16,6/23/2020 21:26,0,5769.15,5769.15,1,Vertical,0,448,1.783,0,0,months8
0349843571f5184e8feb7995bc,10/27/2019 12:16,6/23/2020 21:26,0,5769.15,5769.15,1,Vertical,4,449,4.201,1,0,months8
0349843571f5184e8feb7995bc,10/27/2019 12:16,6/23/2020 21:26,0,5769.15,5769.15,1,Vertical,8,450,1.566,1,0,months8
0349843571f5184e8feb7995bc,10/27/2019 12:16,6/23/2020 21:26,0,5769.15,5769.15,1,Horizontal,6,451,1.019,1,0,months8
0349843571f5184e8feb7995bc,10/27/2019 12:16,6/23/2020 21:26,0,5769.15,5769.15,1,Horizontal,-8,452,0.599,0,0,months8
0349843571f5184e8feb7995bc,10/27/2019 12:16,6/23/2020 21:26,0,5769.15,5769.15,1,Horizontal,-10,453,0.594,0,0,months8
0349843571f5184e8feb7995bc,10/27/2019 12:16,6/23/2020 21:26,0,5769.15,5769.15,1,Vertical,0,454,1.38,0,0,months8
0349843571f5184e8feb7995bc,10/27/2019 12:16,6/23/2020 21:26,0,5769.15,5769.15,1,Vertical,10,455,1.033,1,0,months8
0349843571f5184e8feb7995bc,10/27/2019 12:16,6/23/2020 21:26,0,5769.15,5769.15,1,Vertical,4,456,2.796,1,0,months8
0349843571f5184e8feb7995bc,10/27/2019 12:16,6/23/2020 21:26,0,5769.15,5769.15,1,Horizontal,0,457,1.838,1,0,months8
0349843571f5184e8feb7995bc,10/27/2019 12:16,6/23/2020 21:26,0,5769.15,5769.15,1,Horizontal,-4,458,0.641,0,0,months8
0349843571f5184e8feb7995bc,10/27/2019 12:16,6/23/2020 21:26,0,5769.15,5769.15,1,Horizontal,10,459,0.611,1,0,months8
0349843571f5184e8feb7995bc,10/27/2019 12:16,6/23/2020 21:26,0,5769.15,5769.15,1,Vertical,2,460,1.348,0,0,months8
0349843571f5184e8feb7995bc,10/27/2019 12:16,6/23/2020 21:26,0,5769.15,5769.15,1,Vertical,-4,461,0.623,0,0,months8
0349843571f5184e8feb7995bc,10/27/2019 12:16,6/23/2020 21:26,0,5769.15,5769.15,1,Vertical,-2,462,0.963,0,0,months8
0349843571f5184e8feb7995bc,10/27/2019 12:16,6/23/2020 21:26,0,5769.15,5769.15,1,Horizontal,0,463,2.098,1,0,months8
0349843571f5184e8feb7995bc,10/27/2019 12:16,6/23/2020 21:26,0,5769.15,5769.15,1,Horizontal,10,464,0.572,1,0,months8
0349843571f5184e8feb7995bc,10/27/2019 12:16,6/23/2020 21:26,0,5769.15,5769.15,1,Horizontal,-10,465,0.649,0,0,months8
0349843571f5184e8feb7995bc,10/27/2019 12:16,6/23/2020 21:26,0,5769.15,5769.15,1,Vertical,0,466,1.628,0,0,months8
0349843571f5184e8feb7995bc,10/27/2019 12:16,6/23/2020 21:26,0,5769.15,5769.15,1,Vertical,6,467,1.856,1,0,months8
0349843571f5184e8feb7995bc,10/27/2019 12:16,6/23/2020 21:26,0,5769.15,5769.15,1,Vertical,6,468,0.981,1,0,months8
0349843571f5184e8feb7995bc,10/27/2019 12:16,6/23/2020 21:26,0,5769.15,5769.15,1,Horizontal,-10,469,0.623,0,0,months8
0349843571f5184e8feb7995bc,10/27/2019 12:16,6/23/2020 21:26,0,5769.15,5769.15,1,Horizontal,10,470,0.639,1,0,months8
0349843571f5184e8feb7995bc,10/27/2019 12:16,6/23/2020 21:26,0,5769.15,5769.15,1,Horizontal,4,471,1.062,1,0,months8
0349843571f5184e8feb7995bc,10/27/2019 12:16,6/23/2020 21:26,0,5769.15,5769.15,1,Vertical,0,472,0.902,0,0,months8
0349843571f5184e8feb7995bc,10/27/2019 12:16,6/23/2020 21:26,0,5769.15,5769.15,1,Vertical,-6,473,0.826,0,0,months8
0349843571f5184e8feb7995bc,10/27/2019 12:16,6/23/2020 21:26,0,5769.15,5769.15,1,Vertical,-2,474,0.869,0,0,months8
0349843571f5184e8feb7995bc,10/27/2019 12:16,6/23/2020 21:26,0,5769.15,5769.15,1,Horizontal,-2,475,1.905,0,0,months8
0349843571f5184e8feb7995bc,10/27/2019 12:16,6/23/2020 21:26,0,5769.15,5769.15,1,Horizontal,-4,476,0.823,0,0,months8
0349843571f5184e8feb7995bc,10/27/2019 12:16,6/23/2020 21:26,0,5769.15,5769.15,1,Horizontal,-6,477,0.715,0,0,months8
0349843571f5184e8feb7995bc,10/27/2019 12:16,6/23/2020 21:26,0,5769.15,5769.15,1,Vertical,-10,478,1.155,0,0,months8
0349843571f5184e8feb7995bc,10/27/2019 12:16,6/23/2020 21:26,0,5769.15,5769.15,1,Vertical,10,479,0.806,1,0,months8
0349843571f5184e8feb7995bc,10/27/2019 12:16,6/23/2020 21:26,0,5769.15,5769.15,1,Vertical,-10,480,0.786,0,0,months8
04bf771a158527a584696693ee,10/27/2019 12:37,6/24/2020 19:51,0,5791.2333,5791.2333,1,Horizontal,10,1,0.954,1,1,months8
04bf771a158527a584696693ee,10/27/2019 12:37,6/24/2020 19:51,0,5791.2333,5791.2333,1,Horizontal,-6,2,0.717,0,1,months8
04bf771a158527a584696693ee,10/27/2019 12:37,6/24/2020 19:51,0,5791.2333,5791.2333,1,Horizontal,-10,3,0.743,0,1,months8
04bf771a158527a584696693ee,10/27/2019 12:37,6/24/2020 19:51,0,5791.2333,5791.2333,1,Vertical,-4,4,1.206,0,1,months8
04bf771a158527a584696693ee,10/27/2019 12:37,6/24/2020 19:51,0,5791.2333,5791.2333,1,Vertical,10,5,0.701,1,1,months8
04bf771a158527a584696693ee,10/27/2019 12:37,6/24/2020 19:51,0,5791.2333,5791.2333,1,Vertical,-10,6,0.64,0,1,months8
04bf771a158527a584696693ee,10/27/2019 12:37,6/24/2020 19:51,0,5791.2333,5791.2333,1,Horizontal,0,7,0.771,1,1,months8
04bf771a158527a584696693ee,10/27/2019 12:37,6/24/2020 19:51,0,5791.2333,5791.2333,1,Horizontal,-4,8,0.659,0,1,months8
04bf771a158527a584696693ee,10/27/2019 12:37,6/24/2020 19:51,0,5791.2333,5791.2333,1,Horizontal,-2,9,0.549,1,1,months8
04bf771a158527a584696693ee,10/27/2019 12:37,6/24/2020 19:51,0,5791.2333,5791.2333,1,Vertical,2,10,0.942,0,1,months8
04bf771a158527a584696693ee,10/27/2019 12:37,6/24/2020 19:51,0,5791.2333,5791.2333,1,Vertical,-4,11,0.565,0,1,months8
04bf771a158527a584696693ee,10/27/2019 12:37,6/24/2020 19:51,0,5791.2333,5791.2333,1,Vertical,6,12,0.669,1,1,months8
04bf771a158527a584696693ee,10/27/2019 12:37,6/24/2020 19:51,0,5791.2333,5791.2333,1,Horizontal,0,13,0.866,0,1,months8
04bf771a158527a584696693ee,10/27/2019 12:37,6/24/2020 19:51,0,5791.2333,5791.2333,1,Horizontal,-2,14,2.753,0,1,months8
04bf771a158527a584696693ee,10/27/2019 12:37,6/24/2020 19:51,0,5791.2333,5791.2333,1,Horizontal,10,15,1.129,1,1,months8
04bf771a158527a584696693ee,10/27/2019 12:37,6/24/2020 19:51,0,5791.2333,5791.2333,1,Vertical,0,16,1.752,0,1,months8
04bf771a158527a584696693ee,10/27/2019 12:37,6/24/2020 19:51,0,5791.2333,5791.2333,1,Vertical,2,17,1.122,1,1,months8
04bf771a158527a584696693ee,10/27/2019 12:37,6/24/2020 19:51,0,5791.2333,5791.2333,1,Vertical,-10,18,0.669,0,1,months8
04bf771a158527a584696693ee,10/27/2019 12:37,6/24/2020 19:51,0,5791.2333,5791.2333,1,Horizontal,4,19,0.909,1,1,months8
04bf771a158527a584696693ee,10/27/2019 12:37,6/24/2020 19:51,0,5791.2333,5791.2333,1,Horizontal,-8,20,0.711,0,1,months8
04bf771a158527a584696693ee,10/27/2019 12:37,6/24/2020 19:51,0,5791.2333,5791.2333,1,Horizontal,4,21,0.582,1,1,months8
04bf771a158527a584696693ee,10/27/2019 12:37,6/24/2020 19:51,0,5791.2333,5791.2333,1,Vertical,6,22,0.904,1,1,months8
04bf771a158527a584696693ee,10/27/2019 12:37,6/24/2020 19:51,0,5791.2333,5791.2333,1,Vertical,10,23,1.73,1,1,months8
04bf771a158527a584696693ee,10/27/2019 12:37,6/24/2020 19:51,0,5791.2333,5791.2333,1,Vertical,-2,24,1.032,0,1,months8
04bf771a158527a584696693ee,10/27/2019 12:37,6/24/2020 19:51,0,5791.2333,5791.2333,1,Horizontal,0,25,3.384,1,1,months8
04bf771a158527a584696693ee,10/27/2019 12:37,6/24/2020 19:51,0,5791.2333,5791.2333,1,Horizontal,4,26,0.727,1,1,months8
04bf771a158527a584696693ee,10/27/2019 12:37,6/24/2020 19:51,0,5791.2333,5791.2333,1,Horizontal,-4,27,0.635,0,1,months8
04bf771a158527a584696693ee,10/27/2019 12:37,6/24/2020 19:51,0,5791.2333,5791.2333,1,Vertical,0,28,1.123,0,1,months8
04bf771a158527a584696693ee,10/27/2019 12:37,6/24/2020 19:51,0,5791.2333,5791.2333,1,Vertical,-2,29,1.188,0,1,months8
04bf771a158527a584696693ee,10/27/2019 12:37,6/24/2020 19:51,0,5791.2333,5791.2333,1,Vertical,4,30,1.426,1,1,months8
04bf771a158527a584696693ee,10/27/2019 12:37,6/24/2020 19:51,0,5791.2333,5791.2333,1,Horizontal,-8,31,0.745,0,1,months8
04bf771a158527a584696693ee,10/27/2019 12:37,6/24/2020 19:51,0,5791.2333,5791.2333,1,Horizontal,-8,32,0.684,0,1,months8
04bf771a158527a584696693ee,10/27/2019 12:37,6/24/2020 19:51,0,5791.2333,5791.2333,1,Horizontal,6,33,0.711,1,1,months8
04bf771a158527a584696693ee,10/27/2019 12:37,6/24/2020 19:51,0,5791.2333,5791.2333,1,Vertical,-10,34,0.78,0,1,months8
04bf771a158527a584696693ee,10/27/2019 12:37,6/24/2020 19:51,0,5791.2333,5791.2333,1,Vertical,2,35,0.976,0,1,months8
04bf771a158527a584696693ee,10/27/2019 12:37,6/24/2020 19:51,0,5791.2333,5791.2333,1,Vertical,-2,36,0.654,0,1,months8
04bf771a158527a584696693ee,10/27/2019 12:37,6/24/2020 19:51,0,5791.2333,5791.2333,1,Horizontal,0,37,1.153,1,1,months8
04bf771a158527a584696693ee,10/27/2019 12:37,6/24/2020 19:51,0,5791.2333,5791.2333,1,Horizontal,-4,38,0.638,0,1,months8
04bf771a158527a584696693ee,10/27/2019 12:37,6/24/2020 19:51,0,5791.2333,5791.2333,1,Horizontal,-6,39,0.971,0,1,months8
04bf771a158527a584696693ee,10/27/2019 12:37,6/24/2020 19:51,0,5791.2333,5791.2333,1,Vertical,0,40,0.761,0,1,months8
04bf771a158527a584696693ee,10/27/2019 12:37,6/24/2020 19:51,0,5791.2333,5791.2333,1,Vertical,10,41,0.857,1,1,months8
04bf771a158527a584696693ee,10/27/2019 12:37,6/24/2020 19:51,0,5791.2333,5791.2333,1,Vertical,-4,42,0.836,0,1,months8
04bf771a158527a584696693ee,10/27/2019 12:37,6/24/2020 19:51,0,5791.2333,5791.2333,1,Horizontal,4,43,0.688,1,1,months8
04bf771a158527a584696693ee,10/27/2019 12:37,6/24/2020 19:51,0,5791.2333,5791.2333,1,Horizontal,6,44,0.679,1,1,months8
04bf771a158527a584696693ee,10/27/2019 12:37,6/24/2020 19:51,0,5791.2333,5791.2333,1,Horizontal,10,45,0.641,1,1,months8
04bf771a158527a584696693ee,10/27/2019 12:37,6/24/2020 19:51,0,5791.2333,5791.2333,1,Vertical,0,46,1.119,0,1,months8
04bf771a158527a584696693ee,10/27/2019 12:37,6/24/2020 19:51,0,5791.2333,5791.2333,1,Vertical,-8,47,0.732,0,1,months8
04bf771a158527a584696693ee,10/27/2019 12:37,6/24/2020 19:51,0,5791.2333,5791.2333,1,Vertical,8,48,0.642,1,1,months8
04bf771a158527a584696693ee,10/27/2019 12:37,6/24/2020 19:51,0,5791.2333,5791.2333,1,Horizontal,0,49,0.839,1,1,months8
04bf771a158527a584696693ee,10/27/2019 12:37,6/24/2020 19:51,0,5791.2333,5791.2333,1,Horizontal,2,50,0.811,1,1,months8
04bf771a158527a584696693ee,10/27/2019 12:37,6/24/2020 19:51,0,5791.2333,5791.2333,1,Horizontal,-2,51,0.739,0,1,months8
04bf771a158527a584696693ee,10/27/2019 12:37,6/24/2020 19:51,0,5791.2333,5791.2333,1,Vertical,4,52,1.824,1,1,months8
04bf771a158527a584696693ee,10/27/2019 12:37,6/24/2020 19:51,0,5791.2333,5791.2333,1,Vertical,-6,53,0.724,0,1,months8
04bf771a158527a584696693ee,10/27/2019 12:37,6/24/2020 19:51,0,5791.2333,5791.2333,1,Vertical,4,54,2.058,1,1,months8
04bf771a158527a584696693ee,10/27/2019 12:37,6/24/2020 19:51,0,5791.2333,5791.2333,1,Horizontal,-2,55,1.447,0,1,months8
04bf771a158527a584696693ee,10/27/2019 12:37,6/24/2020 19:51,0,5791.2333,5791.2333,1,Horizontal,-8,56,0.582,0,1,months8
04bf771a158527a584696693ee,10/27/2019 12:37,6/24/2020 19:51,0,5791.2333,5791.2333,1,Horizontal,2,57,0.92,1,1,months8
04bf771a158527a584696693ee,10/27/2019 12:37,6/24/2020 19:51,0,5791.2333,5791.2333,1,Vertical,0,58,0.846,0,1,months8
04bf771a158527a584696693ee,10/27/2019 12:37,6/24/2020 19:51,0,5791.2333,5791.2333,1,Vertical,4,59,1.717,0,1,months8
04bf771a158527a584696693ee,10/27/2019 12:37,6/24/2020 19:51,0,5791.2333,5791.2333,1,Vertical,6,60,3.18,1,1,months8
04bf771a158527a584696693ee,10/27/2019 12:37,6/24/2020 19:51,0,5791.2333,5791.2333,1,Horizontal,0,61,1.131,1,1,months8
04bf771a158527a584696693ee,10/27/2019 12:37,6/24/2020 19:51,0,5791.2333,5791.2333,1,Horizontal,6,62,0.848,1,1,months8
04bf771a158527a584696693ee,10/27/2019 12:37,6/24/2020 19:51,0,5791.2333,5791.2333,1,Horizontal,8,63,0.616,1,1,months8
04bf771a158527a584696693ee,10/27/2019 12:37,6/24/2020 19:51,0,5791.2333,5791.2333,1,Vertical,0,64,1.042,0,1,months8
04bf771a158527a584696693ee,10/27/2019 12:37,6/24/2020 19:51,0,5791.2333,5791.2333,1,Vertical,8,65,0.911,1,1,months8
04bf771a158527a584696693ee,10/27/2019 12:37,6/24/2020 19:51,0,5791.2333,5791.2333,1,Vertical,8,66,0.918,1,1,months8
04bf771a158527a584696693ee,10/27/2019 12:37,6/24/2020 19:51,0,5791.2333,5791.2333,1,Horizontal,0,67,1.915,0,1,months8
04bf771a158527a584696693ee,10/27/2019 12:37,6/24/2020 19:51,0,5791.2333,5791.2333,1,Horizontal,-10,68,0.703,0,1,months8
04bf771a158527a584696693ee,10/27/2019 12:37,6/24/2020 19:51,0,5791.2333,5791.2333,1,Horizontal,10,69,1.431,1,1,months8
04bf771a158527a584696693ee,10/27/2019 12:37,6/24/2020 19:51,0,5791.2333,5791.2333,1,Vertical,-6,70,0.669,0,1,months8
04bf771a158527a584696693ee,10/27/2019 12:37,6/24/2020 19:51,0,5791.2333,5791.2333,1,Vertical,-8,71,0.686,0,1,months8
04bf771a158527a584696693ee,10/27/2019 12:37,6/24/2020 19:51,0,5791.2333,5791.2333,1,Vertical,-2,72,0.84,0,1,months8
04bf771a158527a584696693ee,10/27/2019 12:37,6/24/2020 19:51,0,5791.2333,5791.2333,1,Horizontal,8,73,0.633,1,1,months8
04bf771a158527a584696693ee,10/27/2019 12:37,6/24/2020 19:51,0,5791.2333,5791.2333,1,Horizontal,-8,74,0.983,0,1,months8
04bf771a158527a584696693ee,10/27/2019 12:37,6/24/2020 19:51,0,5791.2333,5791.2333,1,Horizontal,-2,75,1.849,0,1,months8
04bf771a158527a584696693ee,10/27/2019 12:37,6/24/2020 19:51,0,5791.2333,5791.2333,1,Vertical,0,76,1.003,0,1,months8
04bf771a158527a584696693ee,10/27/2019 12:37,6/24/2020 19:51,0,5791.2333,5791.2333,1,Vertical,8,77,1.343,1,1,months8
04bf771a158527a584696693ee,10/27/2019 12:37,6/24/2020 19:51,0,5791.2333,5791.2333,1,Vertical,-8,78,0.765,0,1,months8
04bf771a158527a584696693ee,10/27/2019 12:37,6/24/2020 19:51,0,5791.2333,5791.2333,1,Horizontal,-6,79,0.714,0,1,months8
04bf771a158527a584696693ee,10/27/2019 12:37,6/24/2020 19:51,0,5791.2333,5791.2333,1,Horizontal,2,80,0.946,1,1,months8
04bf771a158527a584696693ee,10/27/2019 12:37,6/24/2020 19:51,0,5791.2333,5791.2333,1,Horizontal,6,81,0.553,1,1,months8
04bf771a158527a584696693ee,10/27/2019 12:37,6/24/2020 19:51,0,5791.2333,5791.2333,1,Vertical,-10,82,0.634,0,1,months8
04bf771a158527a584696693ee,10/27/2019 12:37,6/24/2020 19:51,0,5791.2333,5791.2333,1,Vertical,2,83,0.768,0,1,months8
04bf771a158527a584696693ee,10/27/2019 12:37,6/24/2020 19:51,0,5791.2333,5791.2333,1,Vertical,2,84,0.743,0,1,months8
04bf771a158527a584696693ee,10/27/2019 12:37,6/24/2020 19:51,0,5791.2333,5791.2333,1,Horizontal,0,85,1.481,1,1,months8
04bf771a158527a584696693ee,10/27/2019 12:37,6/24/2020 19:51,0,5791.2333,5791.2333,1,Horizontal,8,86,0.689,1,1,months8
04bf771a158527a584696693ee,10/27/2019 12:37,6/24/2020 19:51,0,5791.2333,5791.2333,1,Horizontal,-4,87,0.826,0,1,months8
04bf771a158527a584696693ee,10/27/2019 12:37,6/24/2020 19:51,0,5791.2333,5791.2333,1,Vertical,0,88,0.804,0,1,months8
04bf771a158527a584696693ee,10/27/2019 12:37,6/24/2020 19:51,0,5791.2333,5791.2333,1,Vertical,6,89,0.817,0,1,months8
04bf771a158527a584696693ee,10/27/2019 12:37,6/24/2020 19:51,0,5791.2333,5791.2333,1,Vertical,6,90,1.303,1,1,months8
04bf771a158527a584696693ee,10/27/2019 12:37,6/24/2020 19:51,0,5791.2333,5791.2333,1,Horizontal,0,91,0.805,1,1,months8
04bf771a158527a584696693ee,10/27/2019 12:37,6/24/2020 19:51,0,5791.2333,5791.2333,1,Horizontal,-6,92,0.602,0,1,months8
04bf771a158527a584696693ee,10/27/2019 12:37,6/24/2020 19:51,0,5791.2333,5791.2333,1,Horizontal,8,93,0.616,1,1,months8
04bf771a158527a584696693ee,10/27/2019 12:37,6/24/2020 19:51,0,5791.2333,5791.2333,1,Vertical,-6,94,0.807,0,1,months8
04bf771a158527a584696693ee,10/27/2019 12:37,6/24/2020 19:51,0,5791.2333,5791.2333,1,Vertical,-10,95,0.64,0,1,months8
04bf771a158527a584696693ee,10/27/2019 12:37,6/24/2020 19:51,0,5791.2333,5791.2333,1,Vertical,-8,96,0.712,0,1,months8
04bf771a158527a584696693ee,10/27/2019 12:37,6/24/2020 19:51,0,5791.2333,5791.2333,1,Horizontal,-4,97,0.65,0,1,months8
04bf771a158527a584696693ee,10/27/2019 12:37,6/24/2020 19:51,0,5791.2333,5791.2333,1,Horizontal,-10,98,0.546,0,1,months8
04bf771a158527a584696693ee,10/27/2019 12:37,6/24/2020 19:51,0,5791.2333,5791.2333,1,Horizontal,2,99,0.561,1,1,months8
04bf771a158527a584696693ee,10/27/2019 12:37,6/24/2020 19:51,0,5791.2333,5791.2333,1,Vertical,0,100,0.625,0,1,months8
04bf771a158527a584696693ee,10/27/2019 12:37,6/24/2020 19:51,0,5791.2333,5791.2333,1,Vertical,-4,101,0.605,0,1,months8
04bf771a158527a584696693ee,10/27/2019 12:37,6/24/2020 19:51,0,5791.2333,5791.2333,1,Vertical,-4,102,0.621,0,1,months8
04bf771a158527a584696693ee,10/27/2019 12:37,6/24/2020 19:51,0,5791.2333,5791.2333,1,Horizontal,4,103,0.577,1,1,months8
04bf771a158527a584696693ee,10/27/2019 12:37,6/24/2020 19:51,0,5791.2333,5791.2333,1,Horizontal,-6,104,0.526,0,1,months8
04bf771a158527a584696693ee,10/27/2019 12:37,6/24/2020 19:51,0,5791.2333,5791.2333,1,Horizontal,-10,105,0.487,0,1,months8
04bf771a158527a584696693ee,10/27/2019 12:37,6/24/2020 19:51,0,5791.2333,5791.2333,1,Vertical,-6,106,0.728,0,1,months8
04bf771a158527a584696693ee,10/27/2019 12:37,6/24/2020 19:51,0,5791.2333,5791.2333,1,Vertical,8,107,0.706,1,1,months8
04bf771a158527a584696693ee,10/27/2019 12:37,6/24/2020 19:51,0,5791.2333,5791.2333,1,Vertical,4,108,0.738,1,1,months8
04bf771a158527a584696693ee,10/27/2019 12:37,6/24/2020 19:51,0,5791.2333,5791.2333,1,Horizontal,2,109,0.648,1,1,months8
04bf771a158527a584696693ee,10/27/2019 12:37,6/24/2020 19:51,0,5791.2333,5791.2333,1,Horizontal,8,110,0.626,1,1,months8
04bf771a158527a584696693ee,10/27/2019 12:37,6/24/2020 19:51,0,5791.2333,5791.2333,1,Horizontal,-10,111,0.638,0,1,months8
04bf771a158527a584696693ee,10/27/2019 12:37,6/24/2020 19:51,0,5791.2333,5791.2333,1,Vertical,-8,112,0.827,0,1,months8
04bf771a158527a584696693ee,10/27/2019 12:37,6/24/2020 19:51,0,5791.2333,5791.2333,1,Vertical,-2,113,0.802,0,1,months8
04bf771a158527a584696693ee,10/27/2019 12:37,6/24/2020 19:51,0,5791.2333,5791.2333,1,Vertical,-6,114,0.89,0,1,months8
04bf771a158527a584696693ee,10/27/2019 12:37,6/24/2020 19:51,0,5791.2333,5791.2333,1,Horizontal,0,115,0.909,1,1,months8
04bf771a158527a584696693ee,10/27/2019 12:37,6/24/2020 19:51,0,5791.2333,5791.2333,1,Horizontal,10,116,0.714,1,1,months8
04bf771a158527a584696693ee,10/27/2019 12:37,6/24/2020 19:51,0,5791.2333,5791.2333,1,Horizontal,6,117,0.772,1,1,months8
04bf771a158527a584696693ee,10/27/2019 12:37,6/24/2020 19:51,0,5791.2333,5791.2333,1,Vertical,0,118,1.076,0,1,months8
04bf771a158527a584696693ee,10/27/2019 12:37,6/24/2020 19:51,0,5791.2333,5791.2333,1,Vertical,10,119,0.925,1,1,months8
04bf771a158527a584696693ee,10/27/2019 12:37,6/24/2020 19:51,0,5791.2333,5791.2333,1,Vertical,10,120,1.106,1,1,months8
04bf771a158527a584696693ee,10/27/2019 12:37,6/24/2020 19:51,0,5791.2333,5791.2333,1,Horizontal,6,121,0.646,1,1,months8
04bf771a158527a584696693ee,10/27/2019 12:37,6/24/2020 19:51,0,5791.2333,5791.2333,1,Horizontal,-2,122,0.794,0,1,months8
04bf771a158527a584696693ee,10/27/2019 12:37,6/24/2020 19:51,0,5791.2333,5791.2333,1,Horizontal,4,123,0.637,1,1,months8
04bf771a158527a584696693ee,10/27/2019 12:37,6/24/2020 19:51,0,5791.2333,5791.2333,1,Vertical,0,124,0.708,0,1,months8
04bf771a158527a584696693ee,10/27/2019 12:37,6/24/2020 19:51,0,5791.2333,5791.2333,1,Vertical,6,125,0.82,1,1,months8
04bf771a158527a584696693ee,10/27/2019 12:37,6/24/2020 19:51,0,5791.2333,5791.2333,1,Vertical,-6,126,0.62,0,1,months8
04bf771a158527a584696693ee,10/27/2019 12:37,6/24/2020 19:51,0,5791.2333,5791.2333,1,Horizontal,0,127,0.653,1,1,months8
04bf771a158527a584696693ee,10/27/2019 12:37,6/24/2020 19:51,0,5791.2333,5791.2333,1,Horizontal,6,128,0.639,1,1,months8
04bf771a158527a584696693ee,10/27/2019 12:37,6/24/2020 19:51,0,5791.2333,5791.2333,1,Horizontal,6,129,0.625,1,1,months8
04bf771a158527a584696693ee,10/27/2019 12:37,6/24/2020 19:51,0,5791.2333,5791.2333,1,Vertical,-2,130,0.842,0,1,months8
04bf771a158527a584696693ee,10/27/2019 12:37,6/24/2020 19:51,0,5791.2333,5791.2333,1,Vertical,6,131,0.785,1,1,months8
04bf771a158527a584696693ee,10/27/2019 12:37,6/24/2020 19:51,0,5791.2333,5791.2333,1,Vertical,4,132,0.846,1,1,months8
04bf771a158527a584696693ee,10/27/2019 12:37,6/24/2020 19:51,0,5791.2333,5791.2333,1,Horizontal,0,133,0.779,0,1,months8
04bf771a158527a584696693ee,10/27/2019 12:37,6/24/2020 19:51,0,5791.2333,5791.2333,1,Horizontal,-2,134,1.02,0,1,months8
04bf771a158527a584696693ee,10/27/2019 12:37,6/24/2020 19:51,0,5791.2333,5791.2333,1,Horizontal,-4,135,0.6,0,1,months8
04bf771a158527a584696693ee,10/27/2019 12:37,6/24/2020 19:51,0,5791.2333,5791.2333,1,Vertical,0,136,1.221,1,1,months8
04bf771a158527a584696693ee,10/27/2019 12:37,6/24/2020 19:51,0,5791.2333,5791.2333,1,Vertical,2,137,1.286,0,1,months8
04bf771a158527a584696693ee,10/27/2019 12:37,6/24/2020 19:51,0,5791.2333,5791.2333,1,Vertical,10,138,0.963,1,1,months8
04bf771a158527a584696693ee,10/27/2019 12:37,6/24/2020 19:51,0,5791.2333,5791.2333,1,Horizontal,-6,139,1.683,0,1,months8
04bf771a158527a584696693ee,10/27/2019 12:37,6/24/2020 19:51,0,5791.2333,5791.2333,1,Horizontal,8,140,0.762,1,1,months8
04bf771a158527a584696693ee,10/27/2019 12:37,6/24/2020 19:51,0,5791.2333,5791.2333,1,Horizontal,4,141,3.37,1,1,months8
04bf771a158527a584696693ee,10/27/2019 12:37,6/24/2020 19:51,0,5791.2333,5791.2333,1,Vertical,0,142,1.114,1,1,months8
04bf771a158527a584696693ee,10/27/2019 12:37,6/24/2020 19:51,0,5791.2333,5791.2333,1,Vertical,-4,143,1.896,0,1,months8
04bf771a158527a584696693ee,10/27/2019 12:37,6/24/2020 19:51,0,5791.2333,5791.2333,1,Vertical,2,144,0.863,0,1,months8
04bf771a158527a584696693ee,10/27/2019 12:37,6/24/2020 19:51,0,5791.2333,5791.2333,1,Horizontal,0,145,1.278,0,1,months8
04bf771a158527a584696693ee,10/27/2019 12:37,6/24/2020 19:51,0,5791.2333,5791.2333,1,Horizontal,2,146,1.669,1,1,months8
04bf771a158527a584696693ee,10/27/2019 12:37,6/24/2020 19:51,0,5791.2333,5791.2333,1,Horizontal,2,147,3.509,0,1,months8
04bf771a158527a584696693ee,10/27/2019 12:37,6/24/2020 19:51,0,5791.2333,5791.2333,1,Vertical,-8,148,0.838,0,1,months8
04bf771a158527a584696693ee,10/27/2019 12:37,6/24/2020 19:51,0,5791.2333,5791.2333,1,Vertical,-10,149,0.714,0,1,months8
04bf771a158527a584696693ee,10/27/2019 12:37,6/24/2020 19:51,0,5791.2333,5791.2333,1,Vertical,-2,150,1.688,1,1,months8
04bf771a158527a584696693ee,10/27/2019 12:37,6/24/2020 19:51,0,5791.2333,5791.2333,1,Horizontal,-4,151,1.001,0,1,months8
04bf771a158527a584696693ee,10/27/2019 12:37,6/24/2020 19:51,0,5791.2333,5791.2333,1,Horizontal,-10,152,0.874,0,1,months8
04bf771a158527a584696693ee,10/27/2019 12:37,6/24/2020 19:51,0,5791.2333,5791.2333,1,Horizontal,2,153,1.034,1,1,months8
04bf771a158527a584696693ee,10/27/2019 12:37,6/24/2020 19:51,0,5791.2333,5791.2333,1,Vertical,0,154,0.939,0,1,months8
04bf771a158527a584696693ee,10/27/2019 12:37,6/24/2020 19:51,0,5791.2333,5791.2333,1,Vertical,-8,155,2.098,0,1,months8
04bf771a158527a584696693ee,10/27/2019 12:37,6/24/2020 19:51,0,5791.2333,5791.2333,1,Vertical,2,156,1.252,1,1,months8
04bf771a158527a584696693ee,10/27/2019 12:37,6/24/2020 19:51,0,5791.2333,5791.2333,1,Horizontal,0,157,1.53,1,1,months8
04bf771a158527a584696693ee,10/27/2019 12:37,6/24/2020 19:51,0,5791.2333,5791.2333,1,Horizontal,4,158,1.217,1,1,months8
04bf771a158527a584696693ee,10/27/2019 12:37,6/24/2020 19:51,0,5791.2333,5791.2333,1,Horizontal,-2,159,0.68,1,1,months8
04bf771a158527a584696693ee,10/27/2019 12:37,6/24/2020 19:51,0,5791.2333,5791.2333,1,Vertical,8,160,0.991,1,1,months8
04bf771a158527a584696693ee,10/27/2019 12:37,6/24/2020 19:51,0,5791.2333,5791.2333,1,Vertical,-6,161,0.689,0,1,months8
04bf771a158527a584696693ee,10/27/2019 12:37,6/24/2020 19:51,0,5791.2333,5791.2333,1,Vertical,-4,162,0.595,0,1,months8
04bf771a158527a584696693ee,10/27/2019 12:37,6/24/2020 19:51,0,5791.2333,5791.2333,1,Horizontal,2,163,0.994,1,1,months8
04bf771a158527a584696693ee,10/27/2019 12:37,6/24/2020 19:51,0,5791.2333,5791.2333,1,Horizontal,8,164,1.1,1,1,months8
04bf771a158527a584696693ee,10/27/2019 12:37,6/24/2020 19:51,0,5791.2333,5791.2333,1,Horizontal,-8,165,1.032,0,1,months8
04bf771a158527a584696693ee,10/27/2019 12:37,6/24/2020 19:51,0,5791.2333,5791.2333,1,Vertical,-10,166,0.818,0,1,months8
04bf771a158527a584696693ee,10/27/2019 12:37,6/24/2020 19:51,0,5791.2333,5791.2333,1,Vertical,10,167,0.985,1,1,months8
04bf771a158527a584696693ee,10/27/2019 12:37,6/24/2020 19:51,0,5791.2333,5791.2333,1,Vertical,-4,168,0.966,0,1,months8
04bf771a158527a584696693ee,10/27/2019 12:37,6/24/2020 19:51,0,5791.2333,5791.2333,1,Horizontal,8,169,1.095,1,1,months8
04bf771a158527a584696693ee,10/27/2019 12:37,6/24/2020 19:51,0,5791.2333,5791.2333,1,Horizontal,8,170,0.675,1,1,months8
04bf771a158527a584696693ee,10/27/2019 12:37,6/24/2020 19:51,0,5791.2333,5791.2333,1,Horizontal,-8,171,1.468,0,1,months8
04bf771a158527a584696693ee,10/27/2019 12:37,6/24/2020 19:51,0,5791.2333,5791.2333,1,Vertical,0,172,0.746,0,1,months8
04bf771a158527a584696693ee,10/27/2019 12:37,6/24/2020 19:51,0,5791.2333,5791.2333,1,Vertical,8,173,0.794,1,1,months8
04bf771a158527a584696693ee,10/27/2019 12:37,6/24/2020 19:51,0,5791.2333,5791.2333,1,Vertical,-2,174,1.59,0,1,months8
04bf771a158527a584696693ee,10/27/2019 12:37,6/24/2020 19:51,0,5791.2333,5791.2333,1,Horizontal,0,175,2.803,0,1,months8
04bf771a158527a584696693ee,10/27/2019 12:37,6/24/2020 19:51,0,5791.2333,5791.2333,1,Horizontal,-8,176,0.674,0,1,months8
04bf771a158527a584696693ee,10/27/2019 12:37,6/24/2020 19:51,0,5791.2333,5791.2333,1,Horizontal,-4,177,0.781,0,1,months8
04bf771a158527a584696693ee,10/27/2019 12:37,6/24/2020 19:51,0,5791.2333,5791.2333,1,Vertical,8,178,1.227,1,1,months8
04bf771a158527a584696693ee,10/27/2019 12:37,6/24/2020 19:51,0,5791.2333,5791.2333,1,Vertical,-8,179,1.013,0,1,months8
04bf771a158527a584696693ee,10/27/2019 12:37,6/24/2020 19:51,0,5791.2333,5791.2333,1,Vertical,2,180,1.875,1,1,months8
04bf771a158527a584696693ee,10/27/2019 12:37,6/24/2020 19:51,0,5791.2333,5791.2333,1,Horizontal,10,181,1.312,1,1,months8
04bf771a158527a584696693ee,10/27/2019 12:37,6/24/2020 19:51,0,5791.2333,5791.2333,1,Horizontal,-6,182,0.679,0,1,months8
04bf771a158527a584696693ee,10/27/2019 12:37,6/24/2020 19:51,0,5791.2333,5791.2333,1,Horizontal,4,183,0.645,1,1,months8
04bf771a158527a584696693ee,10/27/2019 12:37,6/24/2020 19:51,0,5791.2333,5791.2333,1,Vertical,-6,184,1.698,0,1,months8
04bf771a158527a584696693ee,10/27/2019 12:37,6/24/2020 19:51,0,5791.2333,5791.2333,1,Vertical,-6,185,3.023,0,1,months8
04bf771a158527a584696693ee,10/27/2019 12:37,6/24/2020 19:51,0,5791.2333,5791.2333,1,Vertical,-10,186,2.027,0,1,months8
04bf771a158527a584696693ee,10/27/2019 12:37,6/24/2020 19:51,0,5791.2333,5791.2333,1,Horizontal,8,187,0.972,1,1,months8
04bf771a158527a584696693ee,10/27/2019 12:37,6/24/2020 19:51,0,5791.2333,5791.2333,1,Horizontal,-6,188,0.75,0,1,months8
04bf771a158527a584696693ee,10/27/2019 12:37,6/24/2020 19:51,0,5791.2333,5791.2333,1,Horizontal,-6,189,0.663,0,1,months8
04bf771a158527a584696693ee,10/27/2019 12:37,6/24/2020 19:51,0,5791.2333,5791.2333,1,Vertical,0,190,2.601,0,1,months8
04bf771a158527a584696693ee,10/27/2019 12:37,6/24/2020 19:51,0,5791.2333,5791.2333,1,Vertical,6,191,1.218,1,1,months8
04bf771a158527a584696693ee,10/27/2019 12:37,6/24/2020 19:51,0,5791.2333,5791.2333,1,Vertical,10,192,0.857,1,1,months8
04bf771a158527a584696693ee,10/27/2019 12:37,6/24/2020 19:51,0,5791.2333,5791.2333,1,Horizontal,0,193,0.857,1,1,months8
04bf771a158527a584696693ee,10/27/2019 12:37,6/24/2020 19:51,0,5791.2333,5791.2333,1,Horizontal,6,194,0.8,1,1,months8
04bf771a158527a584696693ee,10/27/2019 12:37,6/24/2020 19:51,0,5791.2333,5791.2333,1,Horizontal,2,195,1.386,1,1,months8
04bf771a158527a584696693ee,10/27/2019 12:37,6/24/2020 19:51,0,5791.2333,5791.2333,1,Vertical,-8,196,0.947,1,1,months8
04bf771a158527a584696693ee,10/27/2019 12:37,6/24/2020 19:51,0,5791.2333,5791.2333,1,Vertical,-4,197,1.133,0,1,months8
04bf771a158527a584696693ee,10/27/2019 12:37,6/24/2020 19:51,0,5791.2333,5791.2333,1,Vertical,8,198,0.717,1,1,months8
04bf771a158527a584696693ee,10/27/2019 12:37,6/24/2020 19:51,0,5791.2333,5791.2333,1,Horizontal,0,199,0.761,1,1,months8
04bf771a158527a584696693ee,10/27/2019 12:37,6/24/2020 19:51,0,5791.2333,5791.2333,1,Horizontal,-10,200,0.925,0,1,months8
04bf771a158527a584696693ee,10/27/2019 12:37,6/24/2020 19:51,0,5791.2333,5791.2333,1,Horizontal,-8,201,3.53,0,1,months8
04bf771a158527a584696693ee,10/27/2019 12:37,6/24/2020 19:51,0,5791.2333,5791.2333,1,Vertical,-8,202,0.736,0,1,months8
04bf771a158527a584696693ee,10/27/2019 12:37,6/24/2020 19:51,0,5791.2333,5791.2333,1,Vertical,4,203,1.091,1,1,months8
04bf771a158527a584696693ee,10/27/2019 12:37,6/24/2020 19:51,0,5791.2333,5791.2333,1,Vertical,4,204,1.339,1,1,months8
04bf771a158527a584696693ee,10/27/2019 12:37,6/24/2020 19:51,0,5791.2333,5791.2333,1,Horizontal,0,205,0.759,1,1,months8
04bf771a158527a584696693ee,10/27/2019 12:37,6/24/2020 19:51,0,5791.2333,5791.2333,1,Horizontal,10,206,0.914,1,1,months8
04bf771a158527a584696693ee,10/27/2019 12:37,6/24/2020 19:51,0,5791.2333,5791.2333,1,Horizontal,-2,207,1.355,0,1,months8
04bf771a158527a584696693ee,10/27/2019 12:37,6/24/2020 19:51,0,5791.2333,5791.2333,1,Vertical,0,208,1.04,0,1,months8
04bf771a158527a584696693ee,10/27/2019 12:37,6/24/2020 19:51,0,5791.2333,5791.2333,1,Vertical,4,209,0.947,1,1,months8
04bf771a158527a584696693ee,10/27/2019 12:37,6/24/2020 19:51,0,5791.2333,5791.2333,1,Vertical,8,210,0.759,1,1,months8
04bf771a158527a584696693ee,10/27/2019 12:37,6/24/2020 19:51,0,5791.2333,5791.2333,1,Horizontal,6,211,1.516,1,1,months8
04bf771a158527a584696693ee,10/27/2019 12:37,6/24/2020 19:51,0,5791.2333,5791.2333,1,Horizontal,-8,212,0.637,0,1,months8
04bf771a158527a584696693ee,10/27/2019 12:37,6/24/2020 19:51,0,5791.2333,5791.2333,1,Horizontal,-10,213,0.619,0,1,months8
04bf771a158527a584696693ee,10/27/2019 12:37,6/24/2020 19:51,0,5791.2333,5791.2333,1,Vertical,0,214,0.747,1,1,months8
04bf771a158527a584696693ee,10/27/2019 12:37,6/24/2020 19:51,0,5791.2333,5791.2333,1,Vertical,10,215,0.894,1,1,months8
04bf771a158527a584696693ee,10/27/2019 12:37,6/24/2020 19:51,0,5791.2333,5791.2333,1,Vertical,4,216,0.833,0,1,months8
04bf771a158527a584696693ee,10/27/2019 12:37,6/24/2020 19:51,0,5791.2333,5791.2333,1,Horizontal,0,217,0.927,1,1,months8
04bf771a158527a584696693ee,10/27/2019 12:37,6/24/2020 19:51,0,5791.2333,5791.2333,1,Horizontal,-4,218,0.687,0,1,months8
04bf771a158527a584696693ee,10/27/2019 12:37,6/24/2020 19:51,0,5791.2333,5791.2333,1,Horizontal,10,219,0.593,1,1,months8
04bf771a158527a584696693ee,10/27/2019 12:37,6/24/2020 19:51,0,5791.2333,5791.2333,1,Vertical,2,220,0.82,0,1,months8
04bf771a158527a584696693ee,10/27/2019 12:37,6/24/2020 19:51,0,5791.2333,5791.2333,1,Vertical,-4,221,0.622,0,1,months8
04bf771a158527a584696693ee,10/27/2019 12:37,6/24/2020 19:51,0,5791.2333,5791.2333,1,Vertical,-2,222,0.836,0,1,months8
04bf771a158527a584696693ee,10/27/2019 12:37,6/24/2020 19:51,0,5791.2333,5791.2333,1,Horizontal,0,223,1.086,1,1,months8
04bf771a158527a584696693ee,10/27/2019 12:37,6/24/2020 19:51,0,5791.2333,5791.2333,1,Horizontal,10,224,0.637,1,1,months8
04bf771a158527a584696693ee,10/27/2019 12:37,6/24/2020 19:51,0,5791.2333,5791.2333,1,Horizontal,-10,225,0.598,0,1,months8
04bf771a158527a584696693ee,10/27/2019 12:37,6/24/2020 19:51,0,5791.2333,5791.2333,1,Vertical,0,226,0.695,0,1,months8
04bf771a158527a584696693ee,10/27/2019 12:37,6/24/2020 19:51,0,5791.2333,5791.2333,1,Vertical,6,227,0.648,1,1,months8
04bf771a158527a584696693ee,10/27/2019 12:37,6/24/2020 19:51,0,5791.2333,5791.2333,1,Vertical,6,228,0.97,1,1,months8
04bf771a158527a584696693ee,10/27/2019 12:37,6/24/2020 19:51,0,5791.2333,5791.2333,1,Horizontal,-10,229,0.887,0,1,months8
04bf771a158527a584696693ee,10/27/2019 12:37,6/24/2020 19:51,0,5791.2333,5791.2333,1,Horizontal,10,230,0.573,1,1,months8
04bf771a158527a584696693ee,10/27/2019 12:37,6/24/2020 19:51,0,5791.2333,5791.2333,1,Horizontal,4,231,0.65,1,1,months8
04bf771a158527a584696693ee,10/27/2019 12:37,6/24/2020 19:51,0,5791.2333,5791.2333,1,Vertical,0,232,0.938,1,1,months8
04bf771a158527a584696693ee,10/27/2019 12:37,6/24/2020 19:51,0,5791.2333,5791.2333,1,Vertical,-6,233,0.806,0,1,months8
04bf771a158527a584696693ee,10/27/2019 12:37,6/24/2020 19:51,0,5791.2333,5791.2333,1,Vertical,-2,234,0.599,0,1,months8
04bf771a158527a584696693ee,10/27/2019 12:37,6/24/2020 19:51,0,5791.2333,5791.2333,1,Horizontal,-2,235,0.799,0,1,months8
04bf771a158527a584696693ee,10/27/2019 12:37,6/24/2020 19:51,0,5791.2333,5791.2333,1,Horizontal,-4,236,0.636,0,1,months8
04bf771a158527a584696693ee,10/27/2019 12:37,6/24/2020 19:51,0,5791.2333,5791.2333,1,Horizontal,-6,237,0.519,0,1,months8
04bf771a158527a584696693ee,10/27/2019 12:37,6/24/2020 19:51,0,5791.2333,5791.2333,1,Vertical,-10,238,0.698,0,1,months8
04bf771a158527a584696693ee,10/27/2019 12:37,6/24/2020 19:51,0,5791.2333,5791.2333,1,Vertical,10,239,0.686,1,1,months8
04bf771a158527a584696693ee,10/27/2019 12:37,6/24/2020 19:51,0,5791.2333,5791.2333,1,Vertical,-10,240,1.014,0,1,months8
04bf771a158527a584696693ee,10/27/2019 12:37,6/24/2020 19:51,0,5791.2333,5791.2333,1,Horizontal,10,241,0.594,1,1,months8
04bf771a158527a584696693ee,10/27/2019 12:37,6/24/2020 19:51,0,5791.2333,5791.2333,1,Horizontal,-6,242,0.539,0,1,months8
04bf771a158527a584696693ee,10/27/2019 12:37,6/24/2020 19:51,0,5791.2333,5791.2333,1,Horizontal,-10,243,0.57,0,1,months8
04bf771a158527a584696693ee,10/27/2019 12:37,6/24/2020 19:51,0,5791.2333,5791.2333,1,Vertical,-4,244,0.648,0,1,months8
04bf771a158527a584696693ee,10/27/2019 12:37,6/24/2020 19:51,0,5791.2333,5791.2333,1,Vertical,10,245,0.631,1,1,months8
04bf771a158527a584696693ee,10/27/2019 12:37,6/24/2020 19:51,0,5791.2333,5791.2333,1,Vertical,-10,246,0.709,0,1,months8
04bf771a158527a584696693ee,10/27/2019 12:37,6/24/2020 19:51,0,5791.2333,5791.2333,1,Horizontal,0,247,0.63,1,1,months8
04bf771a158527a584696693ee,10/27/2019 12:37,6/24/2020 19:51,0,5791.2333,5791.2333,1,Horizontal,-4,248,0.694,0,1,months8
04bf771a158527a584696693ee,10/27/2019 12:37,6/24/2020 19:51,0,5791.2333,5791.2333,1,Horizontal,-2,249,1.092,0,1,months8
04bf771a158527a584696693ee,10/27/2019 12:37,6/24/2020 19:51,0,5791.2333,5791.2333,1,Vertical,2,250,0.544,0,1,months8
04bf771a158527a584696693ee,10/27/2019 12:37,6/24/2020 19:51,0,5791.2333,5791.2333,1,Vertical,-4,251,0.518,0,1,months8
04bf771a158527a584696693ee,10/27/2019 12:37,6/24/2020 19:51,0,5791.2333,5791.2333,1,Vertical,6,252,0.661,1,1,months8
04bf771a158527a584696693ee,10/27/2019 12:37,6/24/2020 19:51,0,5791.2333,5791.2333,1,Horizontal,0,253,0.953,1,1,months8
04bf771a158527a584696693ee,10/27/2019 12:37,6/24/2020 19:51,0,5791.2333,5791.2333,1,Horizontal,-2,254,0.699,0,1,months8
04bf771a158527a584696693ee,10/27/2019 12:37,6/24/2020 19:51,0,5791.2333,5791.2333,1,Horizontal,10,255,0.551,1,1,months8
04bf771a158527a584696693ee,10/27/2019 12:37,6/24/2020 19:51,0,5791.2333,5791.2333,1,Vertical,0,256,0.723,0,1,months8
04bf771a158527a584696693ee,10/27/2019 12:37,6/24/2020 19:51,0,5791.2333,5791.2333,1,Vertical,2,257,0.847,1,1,months8
04bf771a158527a584696693ee,10/27/2019 12:37,6/24/2020 19:51,0,5791.2333,5791.2333,1,Vertical,-10,258,0.745,0,1,months8
04bf771a158527a584696693ee,10/27/2019 12:37,6/24/2020 19:51,0,5791.2333,5791.2333,1,Horizontal,4,259,0.612,1,1,months8
04bf771a158527a584696693ee,10/27/2019 12:37,6/24/2020 19:51,0,5791.2333,5791.2333,1,Horizontal,-8,260,0.79,0,1,months8
04bf771a158527a584696693ee,10/27/2019 12:37,6/24/2020 19:51,0,5791.2333,5791.2333,1,Horizontal,4,261,0.671,1,1,months8
04bf771a158527a584696693ee,10/27/2019 12:37,6/24/2020 19:51,0,5791.2333,5791.2333,1,Vertical,6,262,0.821,1,1,months8
04bf771a158527a584696693ee,10/27/2019 12:37,6/24/2020 19:51,0,5791.2333,5791.2333,1,Vertical,10,263,0.92,1,1,months8
04bf771a158527a584696693ee,10/27/2019 12:37,6/24/2020 19:51,0,5791.2333,5791.2333,1,Vertical,-2,264,0.951,0,1,months8
04bf771a158527a584696693ee,10/27/2019 12:37,6/24/2020 19:51,0,5791.2333,5791.2333,1,Horizontal,0,265,1.006,1,1,months8
04bf771a158527a584696693ee,10/27/2019 12:37,6/24/2020 19:51,0,5791.2333,5791.2333,1,Horizontal,4,266,0.714,1,1,months8
04bf771a158527a584696693ee,10/27/2019 12:37,6/24/2020 19:51,0,5791.2333,5791.2333,1,Horizontal,-4,267,0.677,0,1,months8
04bf771a158527a584696693ee,10/27/2019 12:37,6/24/2020 19:51,0,5791.2333,5791.2333,1,Vertical,0,268,1.234,0,1,months8
04bf771a158527a584696693ee,10/27/2019 12:37,6/24/2020 19:51,0,5791.2333,5791.2333,1,Vertical,-2,269,1.058,0,1,months8
04bf771a158527a584696693ee,10/27/2019 12:37,6/24/2020 19:51,0,5791.2333,5791.2333,1,Vertical,4,270,0.671,0,1,months8
04bf771a158527a584696693ee,10/27/2019 12:37,6/24/2020 19:51,0,5791.2333,5791.2333,1,Horizontal,-8,271,0.656,0,1,months8
04bf771a158527a584696693ee,10/27/2019 12:37,6/24/2020 19:51,0,5791.2333,5791.2333,1,Horizontal,-8,272,0.515,0,1,months8
04bf771a158527a584696693ee,10/27/2019 12:37,6/24/2020 19:51,0,5791.2333,5791.2333,1,Horizontal,6,273,0.67,1,1,months8
04bf771a158527a584696693ee,10/27/2019 12:37,6/24/2020 19:51,0,5791.2333,5791.2333,1,Vertical,-10,274,0.602,0,1,months8
04bf771a158527a584696693ee,10/27/2019 12:37,6/24/2020 19:51,0,5791.2333,5791.2333,1,Vertical,2,275,0.764,0,1,months8
04bf771a158527a584696693ee,10/27/2019 12:37,6/24/2020 19:51,0,5791.2333,5791.2333,1,Vertical,-2,276,0.71,0,1,months8
04bf771a158527a584696693ee,10/27/2019 12:37,6/24/2020 19:51,0,5791.2333,5791.2333,1,Horizontal,0,277,0.864,1,1,months8
04bf771a158527a584696693ee,10/27/2019 12:37,6/24/2020 19:51,0,5791.2333,5791.2333,1,Horizontal,-4,278,0.58,1,1,months8
04bf771a158527a584696693ee,10/27/2019 12:37,6/24/2020 19:51,0,5791.2333,5791.2333,1,Horizontal,-6,279,0.669,0,1,months8
04bf771a158527a584696693ee,10/27/2019 12:37,6/24/2020 19:51,0,5791.2333,5791.2333,1,Vertical,0,280,0.693,0,1,months8
04bf771a158527a584696693ee,10/27/2019 12:37,6/24/2020 19:51,0,5791.2333,5791.2333,1,Vertical,10,281,0.656,1,1,months8
04bf771a158527a584696693ee,10/27/2019 12:37,6/24/2020 19:51,0,5791.2333,5791.2333,1,Vertical,-4,282,0.684,0,1,months8
04bf771a158527a584696693ee,10/27/2019 12:37,6/24/2020 19:51,0,5791.2333,5791.2333,1,Horizontal,4,283,0.791,1,1,months8
04bf771a158527a584696693ee,10/27/2019 12:37,6/24/2020 19:51,0,5791.2333,5791.2333,1,Horizontal,6,284,0.729,1,1,months8
04bf771a158527a584696693ee,10/27/2019 12:37,6/24/2020 19:51,0,5791.2333,5791.2333,1,Horizontal,10,285,0.562,1,1,months8
04bf771a158527a584696693ee,10/27/2019 12:37,6/24/2020 19:51,0,5791.2333,5791.2333,1,Vertical,0,286,0.61,0,1,months8
04bf771a158527a584696693ee,10/27/2019 12:37,6/24/2020 19:51,0,5791.2333,5791.2333,1,Vertical,-8,287,0.687,0,1,months8
04bf771a158527a584696693ee,10/27/2019 12:37,6/24/2020 19:51,0,5791.2333,5791.2333,1,Vertical,8,288,0.754,1,1,months8
04bf771a158527a584696693ee,10/27/2019 12:37,6/24/2020 19:51,0,5791.2333,5791.2333,1,Horizontal,0,289,0.758,1,1,months8
04bf771a158527a584696693ee,10/27/2019 12:37,6/24/2020 19:51,0,5791.2333,5791.2333,1,Horizontal,2,290,1.425,1,1,months8
04bf771a158527a584696693ee,10/27/2019 12:37,6/24/2020 19:51,0,5791.2333,5791.2333,1,Horizontal,-2,291,0.883,0,1,months8
04bf771a158527a584696693ee,10/27/2019 12:37,6/24/2020 19:51,0,5791.2333,5791.2333,1,Vertical,4,292,1.016,0,1,months8
04bf771a158527a584696693ee,10/27/2019 12:37,6/24/2020 19:51,0,5791.2333,5791.2333,1,Vertical,-6,293,0.758,0,1,months8
04bf771a158527a584696693ee,10/27/2019 12:37,6/24/2020 19:51,0,5791.2333,5791.2333,1,Vertical,4,294,1.019,1,1,months8
04bf771a158527a584696693ee,10/27/2019 12:37,6/24/2020 19:51,0,5791.2333,5791.2333,1,Horizontal,-2,295,0.899,0,1,months8
04bf771a158527a584696693ee,10/27/2019 12:37,6/24/2020 19:51,0,5791.2333,5791.2333,1,Horizontal,-8,296,0.604,0,1,months8
04bf771a158527a584696693ee,10/27/2019 12:37,6/24/2020 19:51,0,5791.2333,5791.2333,1,Horizontal,2,297,0.847,1,1,months8
04bf771a158527a584696693ee,10/27/2019 12:37,6/24/2020 19:51,0,5791.2333,5791.2333,1,Vertical,0,298,0.763,0,1,months8
04bf771a158527a584696693ee,10/27/2019 12:37,6/24/2020 19:51,0,5791.2333,5791.2333,1,Vertical,4,299,0.897,0,1,months8
04bf771a158527a584696693ee,10/27/2019 12:37,6/24/2020 19:51,0,5791.2333,5791.2333,1,Vertical,6,300,1.47,1,1,months8
04bf771a158527a584696693ee,10/27/2019 12:37,6/24/2020 19:51,0,5791.2333,5791.2333,1,Horizontal,0,301,0.62,0,1,months8
04bf771a158527a584696693ee,10/27/2019 12:37,6/24/2020 19:51,0,5791.2333,5791.2333,1,Horizontal,6,302,0.768,1,1,months8
04bf771a158527a584696693ee,10/27/2019 12:37,6/24/2020 19:51,0,5791.2333,5791.2333,1,Horizontal,8,303,0.508,1,1,months8
04bf771a158527a584696693ee,10/27/2019 12:37,6/24/2020 19:51,0,5791.2333,5791.2333,1,Vertical,0,304,0.675,0,1,months8
04bf771a158527a584696693ee,10/27/2019 12:37,6/24/2020 19:51,0,5791.2333,5791.2333,1,Vertical,8,305,0.801,1,1,months8
04bf771a158527a584696693ee,10/27/2019 12:37,6/24/2020 19:51,0,5791.2333,5791.2333,1,Vertical,8,306,0.648,1,1,months8
04bf771a158527a584696693ee,10/27/2019 12:37,6/24/2020 19:51,0,5791.2333,5791.2333,1,Horizontal,0,307,0.891,1,1,months8
04bf771a158527a584696693ee,10/27/2019 12:37,6/24/2020 19:51,0,5791.2333,5791.2333,1,Horizontal,-10,308,0.546,0,1,months8
04bf771a158527a584696693ee,10/27/2019 12:37,6/24/2020 19:51,0,5791.2333,5791.2333,1,Horizontal,10,309,0.55,1,1,months8
04bf771a158527a584696693ee,10/27/2019 12:37,6/24/2020 19:51,0,5791.2333,5791.2333,1,Vertical,-6,310,0.615,0,1,months8
04bf771a158527a584696693ee,10/27/2019 12:37,6/24/2020 19:51,0,5791.2333,5791.2333,1,Vertical,-8,311,0.771,0,1,months8
04bf771a158527a584696693ee,10/27/2019 12:37,6/24/2020 19:51,0,5791.2333,5791.2333,1,Vertical,-2,312,0.603,0,1,months8
04bf771a158527a584696693ee,10/27/2019 12:37,6/24/2020 19:51,0,5791.2333,5791.2333,1,Horizontal,8,313,0.499,1,1,months8
04bf771a158527a584696693ee,10/27/2019 12:37,6/24/2020 19:51,0,5791.2333,5791.2333,1,Horizontal,-8,314,0.584,0,1,months8
04bf771a158527a584696693ee,10/27/2019 12:37,6/24/2020 19:51,0,5791.2333,5791.2333,1,Horizontal,-2,315,0.997,0,1,months8
04bf771a158527a584696693ee,10/27/2019 12:37,6/24/2020 19:51,0,5791.2333,5791.2333,1,Vertical,0,316,0.577,0,1,months8
04bf771a158527a584696693ee,10/27/2019 12:37,6/24/2020 19:51,0,5791.2333,5791.2333,1,Vertical,8,317,0.651,1,1,months8
04bf771a158527a584696693ee,10/27/2019 12:37,6/24/2020 19:51,0,5791.2333,5791.2333,1,Vertical,-8,318,0.656,0,1,months8
04bf771a158527a584696693ee,10/27/2019 12:37,6/24/2020 19:51,0,5791.2333,5791.2333,1,Horizontal,-6,319,0.767,0,1,months8
04bf771a158527a584696693ee,10/27/2019 12:37,6/24/2020 19:51,0,5791.2333,5791.2333,1,Horizontal,2,320,0.658,1,1,months8
04bf771a158527a584696693ee,10/27/2019 12:37,6/24/2020 19:51,0,5791.2333,5791.2333,1,Horizontal,6,321,0.579,1,1,months8
04bf771a158527a584696693ee,10/27/2019 12:37,6/24/2020 19:51,0,5791.2333,5791.2333,1,Vertical,-10,322,0.889,0,1,months8
04bf771a158527a584696693ee,10/27/2019 12:37,6/24/2020 19:51,0,5791.2333,5791.2333,1,Vertical,2,323,1.056,1,1,months8
04bf771a158527a584696693ee,10/27/2019 12:37,6/24/2020 19:51,0,5791.2333,5791.2333,1,Vertical,2,324,0.954,0,1,months8
04bf771a158527a584696693ee,10/27/2019 12:37,6/24/2020 19:51,0,5791.2333,5791.2333,1,Horizontal,0,325,0.787,1,1,months8
04bf771a158527a584696693ee,10/27/2019 12:37,6/24/2020 19:51,0,5791.2333,5791.2333,1,Horizontal,8,326,0.811,1,1,months8
04bf771a158527a584696693ee,10/27/2019 12:37,6/24/2020 19:51,0,5791.2333,5791.2333,1,Horizontal,-4,327,0.723,0,1,months8
04bf771a158527a584696693ee,10/27/2019 12:37,6/24/2020 19:51,0,5791.2333,5791.2333,1,Vertical,0,328,0.809,0,1,months8
04bf771a158527a584696693ee,10/27/2019 12:37,6/24/2020 19:51,0,5791.2333,5791.2333,1,Vertical,6,329,1.118,0,1,months8
04bf771a158527a584696693ee,10/27/2019 12:37,6/24/2020 19:51,0,5791.2333,5791.2333,1,Vertical,6,330,2.322,1,1,months8
04bf771a158527a584696693ee,10/27/2019 12:37,6/24/2020 19:51,0,5791.2333,5791.2333,1,Horizontal,0,331,0.803,1,1,months8
04bf771a158527a584696693ee,10/27/2019 12:37,6/24/2020 19:51,0,5791.2333,5791.2333,1,Horizontal,-6,332,0.809,0,1,months8
04bf771a158527a584696693ee,10/27/2019 12:37,6/24/2020 19:51,0,5791.2333,5791.2333,1,Horizontal,8,333,0.543,1,1,months8
04bf771a158527a584696693ee,10/27/2019 12:37,6/24/2020 19:51,0,5791.2333,5791.2333,1,Vertical,-6,334,0.852,0,1,months8
04bf771a158527a584696693ee,10/27/2019 12:37,6/24/2020 19:51,0,5791.2333,5791.2333,1,Vertical,-10,335,0.623,0,1,months8
04bf771a158527a584696693ee,10/27/2019 12:37,6/24/2020 19:51,0,5791.2333,5791.2333,1,Vertical,-8,336,0.951,0,1,months8
04bf771a158527a584696693ee,10/27/2019 12:37,6/24/2020 19:51,0,5791.2333,5791.2333,1,Horizontal,-4,337,0.954,0,1,months8
04bf771a158527a584696693ee,10/27/2019 12:37,6/24/2020 19:51,0,5791.2333,5791.2333,1,Horizontal,-10,338,0.645,0,1,months8
04bf771a158527a584696693ee,10/27/2019 12:37,6/24/2020 19:51,0,5791.2333,5791.2333,1,Horizontal,2,339,1.067,1,1,months8
04bf771a158527a584696693ee,10/27/2019 12:37,6/24/2020 19:51,0,5791.2333,5791.2333,1,Vertical,0,340,0.797,0,1,months8
04bf771a158527a584696693ee,10/27/2019 12:37,6/24/2020 19:51,0,5791.2333,5791.2333,1,Vertical,-4,341,1.349,0,1,months8
04bf771a158527a584696693ee,10/27/2019 12:37,6/24/2020 19:51,0,5791.2333,5791.2333,1,Vertical,-4,342,0.747,0,1,months8
04bf771a158527a584696693ee,10/27/2019 12:37,6/24/2020 19:51,0,5791.2333,5791.2333,1,Horizontal,4,343,0.686,1,1,months8
04bf771a158527a584696693ee,10/27/2019 12:37,6/24/2020 19:51,0,5791.2333,5791.2333,1,Horizontal,-6,344,0.609,0,1,months8
04bf771a158527a584696693ee,10/27/2019 12:37,6/24/2020 19:51,0,5791.2333,5791.2333,1,Horizontal,-10,345,0.65,0,1,months8
04bf771a158527a584696693ee,10/27/2019 12:37,6/24/2020 19:51,0,5791.2333,5791.2333,1,Vertical,-6,346,1.272,0,1,months8
04bf771a158527a584696693ee,10/27/2019 12:37,6/24/2020 19:51,0,5791.2333,5791.2333,1,Vertical,8,347,0.651,0,1,months8
04bf771a158527a584696693ee,10/27/2019 12:37,6/24/2020 19:51,0,5791.2333,5791.2333,1,Vertical,4,348,0.7,1,1,months8
04bf771a158527a584696693ee,10/27/2019 12:37,6/24/2020 19:51,0,5791.2333,5791.2333,1,Horizontal,2,349,0.782,1,1,months8
04bf771a158527a584696693ee,10/27/2019 12:37,6/24/2020 19:51,0,5791.2333,5791.2333,1,Horizontal,8,350,0.643,1,1,months8
04bf771a158527a584696693ee,10/27/2019 12:37,6/24/2020 19:51,0,5791.2333,5791.2333,1,Horizontal,-10,351,0.605,0,1,months8
04bf771a158527a584696693ee,10/27/2019 12:37,6/24/2020 19:51,0,5791.2333,5791.2333,1,Vertical,-8,352,0.996,0,1,months8
04bf771a158527a584696693ee,10/27/2019 12:37,6/24/2020 19:51,0,5791.2333,5791.2333,1,Vertical,-2,353,0.877,0,1,months8
04bf771a158527a584696693ee,10/27/2019 12:37,6/24/2020 19:51,0,5791.2333,5791.2333,1,Vertical,-6,354,0.648,0,1,months8
04bf771a158527a584696693ee,10/27/2019 12:37,6/24/2020 19:51,0,5791.2333,5791.2333,1,Horizontal,0,355,0.773,1,1,months8
04bf771a158527a584696693ee,10/27/2019 12:37,6/24/2020 19:51,0,5791.2333,5791.2333,1,Horizontal,10,356,0.644,1,1,months8
04bf771a158527a584696693ee,10/27/2019 12:37,6/24/2020 19:51,0,5791.2333,5791.2333,1,Horizontal,6,357,0.613,1,1,months8
04bf771a158527a584696693ee,10/27/2019 12:37,6/24/2020 19:51,0,5791.2333,5791.2333,1,Vertical,0,358,1.458,0,1,months8
04bf771a158527a584696693ee,10/27/2019 12:37,6/24/2020 19:51,0,5791.2333,5791.2333,1,Vertical,10,359,1.202,1,1,months8
04bf771a158527a584696693ee,10/27/2019 12:37,6/24/2020 19:51,0,5791.2333,5791.2333,1,Vertical,10,360,0.823,1,1,months8
04bf771a158527a584696693ee,10/27/2019 12:37,6/24/2020 19:51,0,5791.2333,5791.2333,1,Horizontal,6,361,0.586,1,1,months8
04bf771a158527a584696693ee,10/27/2019 12:37,6/24/2020 19:51,0,5791.2333,5791.2333,1,Horizontal,-2,362,0.654,0,1,months8
04bf771a158527a584696693ee,10/27/2019 12:37,6/24/2020 19:51,0,5791.2333,5791.2333,1,Horizontal,4,363,0.524,1,1,months8
04bf771a158527a584696693ee,10/27/2019 12:37,6/24/2020 19:51,0,5791.2333,5791.2333,1,Vertical,0,364,0.912,0,1,months8
04bf771a158527a584696693ee,10/27/2019 12:37,6/24/2020 19:51,0,5791.2333,5791.2333,1,Vertical,6,365,0.96,1,1,months8
04bf771a158527a584696693ee,10/27/2019 12:37,6/24/2020 19:51,0,5791.2333,5791.2333,1,Vertical,-6,366,0.645,0,1,months8
04bf771a158527a584696693ee,10/27/2019 12:37,6/24/2020 19:51,0,5791.2333,5791.2333,1,Horizontal,0,367,0.729,1,1,months8
04bf771a158527a584696693ee,10/27/2019 12:37,6/24/2020 19:51,0,5791.2333,5791.2333,1,Horizontal,6,368,0.748,1,1,months8
04bf771a158527a584696693ee,10/27/2019 12:37,6/24/2020 19:51,0,5791.2333,5791.2333,1,Horizontal,6,369,0.814,1,1,months8
04bf771a158527a584696693ee,10/27/2019 12:37,6/24/2020 19:51,0,5791.2333,5791.2333,1,Vertical,-2,370,0.736,0,1,months8
04bf771a158527a584696693ee,10/27/2019 12:37,6/24/2020 19:51,0,5791.2333,5791.2333,1,Vertical,6,371,0.585,0,1,months8
04bf771a158527a584696693ee,10/27/2019 12:37,6/24/2020 19:51,0,5791.2333,5791.2333,1,Vertical,4,372,0.674,1,1,months8
04bf771a158527a584696693ee,10/27/2019 12:37,6/24/2020 19:51,0,5791.2333,5791.2333,1,Horizontal,0,373,0.803,0,1,months8
