ID,endDate,startDate,didSess3,hourDiff21,hourDiffPrev,session,task,dev,trialNum,rt,response,subj_idx,timeCondition
0eea83eef6e7e21ba9a3092a9d,8/10/2019 5:44,8/16/2019 21:03,1,159.3167,159.3167,1,Horizontal,10,1,2.873,1,0,week
0eea83eef6e7e21ba9a3092a9d,8/10/2019 5:44,8/16/2019 21:03,1,159.3167,159.3167,1,Horizontal,-6,2,3.473,0,0,week
0eea83eef6e7e21ba9a3092a9d,8/10/2019 5:44,8/16/2019 21:03,1,159.3167,159.3167,1,Horizontal,-10,3,3.485,0,0,week
0eea83eef6e7e21ba9a3092a9d,8/10/2019 5:44,8/16/2019 21:03,1,159.3167,159.3167,1,Vertical,-4,4,5.303,1,0,week
0eea83eef6e7e21ba9a3092a9d,8/10/2019 5:44,8/16/2019 21:03,1,159.3167,159.3167,1,Vertical,10,5,2.989,1,0,week
0eea83eef6e7e21ba9a3092a9d,8/10/2019 5:44,8/16/2019 21:03,1,159.3167,159.3167,1,Vertical,-10,6,4.082,0,0,week
0eea83eef6e7e21ba9a3092a9d,8/10/2019 5:44,8/16/2019 21:03,1,159.3167,159.3167,1,Horizontal,0,7,6.396,1,0,week
0eea83eef6e7e21ba9a3092a9d,8/10/2019 5:44,8/16/2019 21:03,1,159.3167,159.3167,1,Horizontal,-4,8,8.432,0,0,week
0eea83eef6e7e21ba9a3092a9d,8/10/2019 5:44,8/16/2019 21:03,1,159.3167,159.3167,1,Horizontal,-2,9,4.61,0,0,week
0eea83eef6e7e21ba9a3092a9d,8/10/2019 5:44,8/16/2019 21:03,1,159.3167,159.3167,1,Vertical,2,10,0.061,1,0,week
0eea83eef6e7e21ba9a3092a9d,8/10/2019 5:44,8/16/2019 21:03,1,159.3167,159.3167,1,Vertical,-4,11,6.551,1,0,week
0eea83eef6e7e21ba9a3092a9d,8/10/2019 5:44,8/16/2019 21:03,1,159.3167,159.3167,1,Vertical,6,12,2.339,1,0,week
0eea83eef6e7e21ba9a3092a9d,8/10/2019 5:44,8/16/2019 21:03,1,159.3167,159.3167,1,Horizontal,0,13,4.529,1,0,week
0eea83eef6e7e21ba9a3092a9d,8/10/2019 5:44,8/16/2019 21:03,1,159.3167,159.3167,1,Horizontal,-2,14,6.314,0,0,week
0eea83eef6e7e21ba9a3092a9d,8/10/2019 5:44,8/16/2019 21:03,1,159.3167,159.3167,1,Horizontal,10,15,3.876,1,0,week
0eea83eef6e7e21ba9a3092a9d,8/10/2019 5:44,8/16/2019 21:03,1,159.3167,159.3167,1,Vertical,0,16,3.709,1,0,week
0eea83eef6e7e21ba9a3092a9d,8/10/2019 5:44,8/16/2019 21:03,1,159.3167,159.3167,1,Vertical,2,17,5.477,1,0,week
0eea83eef6e7e21ba9a3092a9d,8/10/2019 5:44,8/16/2019 21:03,1,159.3167,159.3167,1,Vertical,-10,18,5.028,0,0,week
0eea83eef6e7e21ba9a3092a9d,8/10/2019 5:44,8/16/2019 21:03,1,159.3167,159.3167,1,Horizontal,4,19,3.241,1,0,week
0eea83eef6e7e21ba9a3092a9d,8/10/2019 5:44,8/16/2019 21:03,1,159.3167,159.3167,1,Horizontal,-8,20,4.552,0,0,week
0eea83eef6e7e21ba9a3092a9d,8/10/2019 5:44,8/16/2019 21:03,1,159.3167,159.3167,1,Horizontal,4,21,4.234,1,0,week
0eea83eef6e7e21ba9a3092a9d,8/10/2019 5:44,8/16/2019 21:03,1,159.3167,159.3167,1,Vertical,6,22,3.81,1,0,week
0eea83eef6e7e21ba9a3092a9d,8/10/2019 5:44,8/16/2019 21:03,1,159.3167,159.3167,1,Vertical,10,23,1.817,1,0,week
0eea83eef6e7e21ba9a3092a9d,8/10/2019 5:44,8/16/2019 21:03,1,159.3167,159.3167,1,Vertical,-2,24,8.549,1,0,week
0eea83eef6e7e21ba9a3092a9d,8/10/2019 5:44,8/16/2019 21:03,1,159.3167,159.3167,1,Horizontal,0,25,6.155,1,0,week
0eea83eef6e7e21ba9a3092a9d,8/10/2019 5:44,8/16/2019 21:03,1,159.3167,159.3167,1,Horizontal,4,26,3.752,1,0,week
0eea83eef6e7e21ba9a3092a9d,8/10/2019 5:44,8/16/2019 21:03,1,159.3167,159.3167,1,Horizontal,-4,27,3.206,0,0,week
0eea83eef6e7e21ba9a3092a9d,8/10/2019 5:44,8/16/2019 21:03,1,159.3167,159.3167,1,Vertical,0,28,3.379,1,0,week
0eea83eef6e7e21ba9a3092a9d,8/10/2019 5:44,8/16/2019 21:03,1,159.3167,159.3167,1,Vertical,-2,29,2.807,1,0,week
0eea83eef6e7e21ba9a3092a9d,8/10/2019 5:44,8/16/2019 21:03,1,159.3167,159.3167,1,Vertical,4,30,4.612,1,0,week
0eea83eef6e7e21ba9a3092a9d,8/10/2019 5:44,8/16/2019 21:03,1,159.3167,159.3167,1,Horizontal,-8,31,4.432,0,0,week
0eea83eef6e7e21ba9a3092a9d,8/10/2019 5:44,8/16/2019 21:03,1,159.3167,159.3167,1,Horizontal,-8,32,3.002,0,0,week
0eea83eef6e7e21ba9a3092a9d,8/10/2019 5:44,8/16/2019 21:03,1,159.3167,159.3167,1,Horizontal,6,33,3.678,1,0,week
0eea83eef6e7e21ba9a3092a9d,8/10/2019 5:44,8/16/2019 21:03,1,159.3167,159.3167,1,Vertical,-10,34,3.872,1,0,week
0eea83eef6e7e21ba9a3092a9d,8/10/2019 5:44,8/16/2019 21:03,1,159.3167,159.3167,1,Vertical,2,35,2.056,1,0,week
0eea83eef6e7e21ba9a3092a9d,8/10/2019 5:44,8/16/2019 21:03,1,159.3167,159.3167,1,Vertical,-2,36,2.538,1,0,week
0eea83eef6e7e21ba9a3092a9d,8/10/2019 5:44,8/16/2019 21:03,1,159.3167,159.3167,1,Horizontal,0,37,4.311,1,0,week
0eea83eef6e7e21ba9a3092a9d,8/10/2019 5:44,8/16/2019 21:03,1,159.3167,159.3167,1,Horizontal,-4,38,3.276,0,0,week
0eea83eef6e7e21ba9a3092a9d,8/10/2019 5:44,8/16/2019 21:03,1,159.3167,159.3167,1,Horizontal,-6,39,3.428,0,0,week
0eea83eef6e7e21ba9a3092a9d,8/10/2019 5:44,8/16/2019 21:03,1,159.3167,159.3167,1,Vertical,0,40,2.926,1,0,week
0eea83eef6e7e21ba9a3092a9d,8/10/2019 5:44,8/16/2019 21:03,1,159.3167,159.3167,1,Vertical,10,41,3.802,1,0,week
0eea83eef6e7e21ba9a3092a9d,8/10/2019 5:44,8/16/2019 21:03,1,159.3167,159.3167,1,Vertical,-4,42,4.715,1,0,week
0eea83eef6e7e21ba9a3092a9d,8/10/2019 5:44,8/16/2019 21:03,1,159.3167,159.3167,1,Horizontal,4,43,1.868,1,0,week
0eea83eef6e7e21ba9a3092a9d,8/10/2019 5:44,8/16/2019 21:03,1,159.3167,159.3167,1,Horizontal,6,44,3.662,1,0,week
0eea83eef6e7e21ba9a3092a9d,8/10/2019 5:44,8/16/2019 21:03,1,159.3167,159.3167,1,Horizontal,10,45,4.92,1,0,week
0eea83eef6e7e21ba9a3092a9d,8/10/2019 5:44,8/16/2019 21:03,1,159.3167,159.3167,1,Vertical,0,46,2.166,1,0,week
0eea83eef6e7e21ba9a3092a9d,8/10/2019 5:44,8/16/2019 21:03,1,159.3167,159.3167,1,Vertical,-8,47,3.534,0,0,week
0eea83eef6e7e21ba9a3092a9d,8/10/2019 5:44,8/16/2019 21:03,1,159.3167,159.3167,1,Vertical,8,48,2.664,1,0,week
0eea83eef6e7e21ba9a3092a9d,8/10/2019 5:44,8/16/2019 21:03,1,159.3167,159.3167,1,Horizontal,0,49,4.962,1,0,week
0eea83eef6e7e21ba9a3092a9d,8/10/2019 5:44,8/16/2019 21:03,1,159.3167,159.3167,1,Horizontal,2,50,5.348,1,0,week
0eea83eef6e7e21ba9a3092a9d,8/10/2019 5:44,8/16/2019 21:03,1,159.3167,159.3167,1,Horizontal,-2,51,4.108,0,0,week
0eea83eef6e7e21ba9a3092a9d,8/10/2019 5:44,8/16/2019 21:03,1,159.3167,159.3167,1,Vertical,4,52,2.63,1,0,week
0eea83eef6e7e21ba9a3092a9d,8/10/2019 5:44,8/16/2019 21:03,1,159.3167,159.3167,1,Vertical,-6,53,4.691,1,0,week
0eea83eef6e7e21ba9a3092a9d,8/10/2019 5:44,8/16/2019 21:03,1,159.3167,159.3167,1,Vertical,4,54,2.642,1,0,week
0eea83eef6e7e21ba9a3092a9d,8/10/2019 5:44,8/16/2019 21:03,1,159.3167,159.3167,1,Horizontal,-2,55,4.51,0,0,week
0eea83eef6e7e21ba9a3092a9d,8/10/2019 5:44,8/16/2019 21:03,1,159.3167,159.3167,1,Horizontal,-8,56,2.598,0,0,week
0eea83eef6e7e21ba9a3092a9d,8/10/2019 5:44,8/16/2019 21:03,1,159.3167,159.3167,1,Horizontal,2,57,3.479,1,0,week
0eea83eef6e7e21ba9a3092a9d,8/10/2019 5:44,8/16/2019 21:03,1,159.3167,159.3167,1,Vertical,0,58,2.59,1,0,week
0eea83eef6e7e21ba9a3092a9d,8/10/2019 5:44,8/16/2019 21:03,1,159.3167,159.3167,1,Vertical,4,59,1.636,1,0,week
0eea83eef6e7e21ba9a3092a9d,8/10/2019 5:44,8/16/2019 21:03,1,159.3167,159.3167,1,Vertical,6,60,1.902,1,0,week
0eea83eef6e7e21ba9a3092a9d,8/10/2019 5:44,8/16/2019 21:03,1,159.3167,159.3167,1,Horizontal,0,61,5.231,1,0,week
0eea83eef6e7e21ba9a3092a9d,8/10/2019 5:44,8/16/2019 21:03,1,159.3167,159.3167,1,Horizontal,6,62,2.643,1,0,week
0eea83eef6e7e21ba9a3092a9d,8/10/2019 5:44,8/16/2019 21:03,1,159.3167,159.3167,1,Horizontal,8,63,3.241,1,0,week
0eea83eef6e7e21ba9a3092a9d,8/10/2019 5:44,8/16/2019 21:03,1,159.3167,159.3167,1,Vertical,0,64,1.913,1,0,week
0eea83eef6e7e21ba9a3092a9d,8/10/2019 5:44,8/16/2019 21:03,1,159.3167,159.3167,1,Vertical,8,65,0.873,1,0,week
0eea83eef6e7e21ba9a3092a9d,8/10/2019 5:44,8/16/2019 21:03,1,159.3167,159.3167,1,Vertical,8,66,1.883,1,0,week
0eea83eef6e7e21ba9a3092a9d,8/10/2019 5:44,8/16/2019 21:03,1,159.3167,159.3167,1,Horizontal,0,67,3.323,1,0,week
0eea83eef6e7e21ba9a3092a9d,8/10/2019 5:44,8/16/2019 21:03,1,159.3167,159.3167,1,Horizontal,-10,68,1.814,0,0,week
0eea83eef6e7e21ba9a3092a9d,8/10/2019 5:44,8/16/2019 21:03,1,159.3167,159.3167,1,Horizontal,10,69,1.889,1,0,week
0eea83eef6e7e21ba9a3092a9d,8/10/2019 5:44,8/16/2019 21:03,1,159.3167,159.3167,1,Vertical,-6,70,1.232,1,0,week
0eea83eef6e7e21ba9a3092a9d,8/10/2019 5:44,8/16/2019 21:03,1,159.3167,159.3167,1,Vertical,-8,71,2.101,1,0,week
0eea83eef6e7e21ba9a3092a9d,8/10/2019 5:44,8/16/2019 21:03,1,159.3167,159.3167,1,Vertical,-2,72,2.094,1,0,week
0eea83eef6e7e21ba9a3092a9d,8/10/2019 5:44,8/16/2019 21:03,1,159.3167,159.3167,1,Horizontal,8,73,4.507,1,0,week
0eea83eef6e7e21ba9a3092a9d,8/10/2019 5:44,8/16/2019 21:03,1,159.3167,159.3167,1,Horizontal,-8,74,3.532,0,0,week
0eea83eef6e7e21ba9a3092a9d,8/10/2019 5:44,8/16/2019 21:03,1,159.3167,159.3167,1,Horizontal,-2,75,4.108,0,0,week
0eea83eef6e7e21ba9a3092a9d,8/10/2019 5:44,8/16/2019 21:03,1,159.3167,159.3167,1,Vertical,0,76,2.819,1,0,week
0eea83eef6e7e21ba9a3092a9d,8/10/2019 5:44,8/16/2019 21:03,1,159.3167,159.3167,1,Vertical,8,77,1.325,1,0,week
0eea83eef6e7e21ba9a3092a9d,8/10/2019 5:44,8/16/2019 21:03,1,159.3167,159.3167,1,Vertical,-8,78,1.019,1,0,week
0eea83eef6e7e21ba9a3092a9d,8/10/2019 5:44,8/16/2019 21:03,1,159.3167,159.3167,1,Horizontal,-6,79,1.521,0,0,week
0eea83eef6e7e21ba9a3092a9d,8/10/2019 5:44,8/16/2019 21:03,1,159.3167,159.3167,1,Horizontal,2,80,2.257,1,0,week
0eea83eef6e7e21ba9a3092a9d,8/10/2019 5:44,8/16/2019 21:03,1,159.3167,159.3167,1,Horizontal,6,81,1.255,1,0,week
0eea83eef6e7e21ba9a3092a9d,8/10/2019 5:44,8/16/2019 21:03,1,159.3167,159.3167,1,Vertical,-10,82,0.086,1,0,week
0eea83eef6e7e21ba9a3092a9d,8/10/2019 5:44,8/16/2019 21:03,1,159.3167,159.3167,1,Vertical,2,83,2.585,1,0,week
0eea83eef6e7e21ba9a3092a9d,8/10/2019 5:44,8/16/2019 21:03,1,159.3167,159.3167,1,Vertical,2,84,1.024,1,0,week
0eea83eef6e7e21ba9a3092a9d,8/10/2019 5:44,8/16/2019 21:03,1,159.3167,159.3167,1,Horizontal,0,85,2.087,0,0,week
0eea83eef6e7e21ba9a3092a9d,8/10/2019 5:44,8/16/2019 21:03,1,159.3167,159.3167,1,Horizontal,8,86,2.162,1,0,week
0eea83eef6e7e21ba9a3092a9d,8/10/2019 5:44,8/16/2019 21:03,1,159.3167,159.3167,1,Horizontal,-4,87,0.858,0,0,week
0eea83eef6e7e21ba9a3092a9d,8/10/2019 5:44,8/16/2019 21:03,1,159.3167,159.3167,1,Vertical,0,88,2.491,1,0,week
0eea83eef6e7e21ba9a3092a9d,8/10/2019 5:44,8/16/2019 21:03,1,159.3167,159.3167,1,Vertical,6,89,1.091,1,0,week
0eea83eef6e7e21ba9a3092a9d,8/10/2019 5:44,8/16/2019 21:03,1,159.3167,159.3167,1,Vertical,6,90,0.871,1,0,week
0eea83eef6e7e21ba9a3092a9d,8/10/2019 5:44,8/16/2019 21:03,1,159.3167,159.3167,1,Horizontal,0,91,2.63,1,0,week
0eea83eef6e7e21ba9a3092a9d,8/10/2019 5:44,8/16/2019 21:03,1,159.3167,159.3167,1,Horizontal,-6,92,0.387,0,0,week
0eea83eef6e7e21ba9a3092a9d,8/10/2019 5:44,8/16/2019 21:03,1,159.3167,159.3167,1,Horizontal,8,93,1.476,1,0,week
0eea83eef6e7e21ba9a3092a9d,8/10/2019 5:44,8/16/2019 21:03,1,159.3167,159.3167,1,Vertical,-6,94,5.241,1,0,week
0eea83eef6e7e21ba9a3092a9d,8/10/2019 5:44,8/16/2019 21:03,1,159.3167,159.3167,1,Vertical,-10,95,3.145,0,0,week
0eea83eef6e7e21ba9a3092a9d,8/10/2019 5:44,8/16/2019 21:03,1,159.3167,159.3167,1,Vertical,-8,96,2.091,0,0,week
0eea83eef6e7e21ba9a3092a9d,8/10/2019 5:44,8/16/2019 21:03,1,159.3167,159.3167,1,Horizontal,-4,97,2.805,0,0,week
0eea83eef6e7e21ba9a3092a9d,8/10/2019 5:44,8/16/2019 21:03,1,159.3167,159.3167,1,Horizontal,-10,98,0.131,0,0,week
0eea83eef6e7e21ba9a3092a9d,8/10/2019 5:44,8/16/2019 21:03,1,159.3167,159.3167,1,Horizontal,2,99,2.538,1,0,week
0eea83eef6e7e21ba9a3092a9d,8/10/2019 5:44,8/16/2019 21:03,1,159.3167,159.3167,1,Vertical,0,100,2.3,1,0,week
0eea83eef6e7e21ba9a3092a9d,8/10/2019 5:44,8/16/2019 21:03,1,159.3167,159.3167,1,Vertical,-4,101,2.732,1,0,week
0eea83eef6e7e21ba9a3092a9d,8/10/2019 5:44,8/16/2019 21:03,1,159.3167,159.3167,1,Vertical,-4,102,4.321,1,0,week
0eea83eef6e7e21ba9a3092a9d,8/10/2019 5:44,8/16/2019 21:03,1,159.3167,159.3167,1,Horizontal,4,103,2.669,1,0,week
0eea83eef6e7e21ba9a3092a9d,8/10/2019 5:44,8/16/2019 21:03,1,159.3167,159.3167,1,Horizontal,-6,104,4.458,0,0,week
0eea83eef6e7e21ba9a3092a9d,8/10/2019 5:44,8/16/2019 21:03,1,159.3167,159.3167,1,Horizontal,-10,105,3.003,0,0,week
0eea83eef6e7e21ba9a3092a9d,8/10/2019 5:44,8/16/2019 21:03,1,159.3167,159.3167,1,Vertical,-6,106,2.188,1,0,week
0eea83eef6e7e21ba9a3092a9d,8/10/2019 5:44,8/16/2019 21:03,1,159.3167,159.3167,1,Vertical,8,107,1.012,1,0,week
0eea83eef6e7e21ba9a3092a9d,8/10/2019 5:44,8/16/2019 21:03,1,159.3167,159.3167,1,Vertical,4,108,1.209,1,0,week
0eea83eef6e7e21ba9a3092a9d,8/10/2019 5:44,8/16/2019 21:03,1,159.3167,159.3167,1,Horizontal,2,109,1.314,1,0,week
0eea83eef6e7e21ba9a3092a9d,8/10/2019 5:44,8/16/2019 21:03,1,159.3167,159.3167,1,Horizontal,8,110,3.139,1,0,week
0eea83eef6e7e21ba9a3092a9d,8/10/2019 5:44,8/16/2019 21:03,1,159.3167,159.3167,1,Horizontal,-10,111,1.615,0,0,week
0eea83eef6e7e21ba9a3092a9d,8/10/2019 5:44,8/16/2019 21:03,1,159.3167,159.3167,1,Vertical,-8,112,2.187,0,0,week
0eea83eef6e7e21ba9a3092a9d,8/10/2019 5:44,8/16/2019 21:03,1,159.3167,159.3167,1,Vertical,-2,113,1.829,1,0,week
0eea83eef6e7e21ba9a3092a9d,8/10/2019 5:44,8/16/2019 21:03,1,159.3167,159.3167,1,Vertical,-6,114,3.135,1,0,week
0eea83eef6e7e21ba9a3092a9d,8/10/2019 5:44,8/16/2019 21:03,1,159.3167,159.3167,1,Horizontal,0,115,3.688,1,0,week
0eea83eef6e7e21ba9a3092a9d,8/10/2019 5:44,8/16/2019 21:03,1,159.3167,159.3167,1,Horizontal,10,116,3.688,1,0,week
0eea83eef6e7e21ba9a3092a9d,8/10/2019 5:44,8/16/2019 21:03,1,159.3167,159.3167,1,Horizontal,6,117,3.797,1,0,week
0eea83eef6e7e21ba9a3092a9d,8/10/2019 5:44,8/16/2019 21:03,1,159.3167,159.3167,1,Vertical,0,118,4.448,1,0,week
0eea83eef6e7e21ba9a3092a9d,8/10/2019 5:44,8/16/2019 21:03,1,159.3167,159.3167,1,Vertical,10,119,2.22,1,0,week
0eea83eef6e7e21ba9a3092a9d,8/10/2019 5:44,8/16/2019 21:03,1,159.3167,159.3167,1,Vertical,10,120,1.683,1,0,week
0eea83eef6e7e21ba9a3092a9d,8/10/2019 5:44,8/16/2019 21:03,1,159.3167,159.3167,1,Horizontal,6,121,2.695,1,0,week
0eea83eef6e7e21ba9a3092a9d,8/10/2019 5:44,8/16/2019 21:03,1,159.3167,159.3167,1,Horizontal,-2,122,1.548,0,0,week
0eea83eef6e7e21ba9a3092a9d,8/10/2019 5:44,8/16/2019 21:03,1,159.3167,159.3167,1,Horizontal,4,123,1.404,1,0,week
0eea83eef6e7e21ba9a3092a9d,8/10/2019 5:44,8/16/2019 21:03,1,159.3167,159.3167,1,Vertical,0,124,1.254,1,0,week
0eea83eef6e7e21ba9a3092a9d,8/10/2019 5:44,8/16/2019 21:03,1,159.3167,159.3167,1,Vertical,6,125,2.302,1,0,week
0eea83eef6e7e21ba9a3092a9d,8/10/2019 5:44,8/16/2019 21:03,1,159.3167,159.3167,1,Vertical,-6,126,1.089,1,0,week
0eea83eef6e7e21ba9a3092a9d,8/10/2019 5:44,8/16/2019 21:03,1,159.3167,159.3167,1,Horizontal,0,127,2.837,0,0,week
0eea83eef6e7e21ba9a3092a9d,8/10/2019 5:44,8/16/2019 21:03,1,159.3167,159.3167,1,Horizontal,6,128,1.376,1,0,week
0eea83eef6e7e21ba9a3092a9d,8/10/2019 5:44,8/16/2019 21:03,1,159.3167,159.3167,1,Horizontal,6,129,3.188,1,0,week
0eea83eef6e7e21ba9a3092a9d,8/10/2019 5:44,8/16/2019 21:03,1,159.3167,159.3167,1,Vertical,-2,130,1.124,1,0,week
0eea83eef6e7e21ba9a3092a9d,8/10/2019 5:44,8/16/2019 21:03,1,159.3167,159.3167,1,Vertical,6,131,2.182,1,0,week
0eea83eef6e7e21ba9a3092a9d,8/10/2019 5:44,8/16/2019 21:03,1,159.3167,159.3167,1,Vertical,4,132,1.049,1,0,week
0eea83eef6e7e21ba9a3092a9d,8/10/2019 5:44,8/16/2019 21:03,1,159.3167,159.3167,1,Horizontal,0,133,4.662,1,0,week
0eea83eef6e7e21ba9a3092a9d,8/10/2019 5:44,8/16/2019 21:03,1,159.3167,159.3167,1,Horizontal,-2,134,2.76,0,0,week
0eea83eef6e7e21ba9a3092a9d,8/10/2019 5:44,8/16/2019 21:03,1,159.3167,159.3167,1,Horizontal,-4,135,1.138,0,0,week
0eea83eef6e7e21ba9a3092a9d,8/10/2019 5:44,8/16/2019 21:03,1,159.3167,159.3167,1,Vertical,0,136,1.021,1,0,week
0eea83eef6e7e21ba9a3092a9d,8/10/2019 5:44,8/16/2019 21:03,1,159.3167,159.3167,1,Vertical,2,137,1.062,1,0,week
0eea83eef6e7e21ba9a3092a9d,8/10/2019 5:44,8/16/2019 21:03,1,159.3167,159.3167,1,Vertical,10,138,1.513,1,0,week
0eea83eef6e7e21ba9a3092a9d,8/10/2019 5:44,8/16/2019 21:03,1,159.3167,159.3167,1,Horizontal,-6,139,1.977,0,0,week
0eea83eef6e7e21ba9a3092a9d,8/10/2019 5:44,8/16/2019 21:03,1,159.3167,159.3167,1,Horizontal,8,140,1.188,1,0,week
0eea83eef6e7e21ba9a3092a9d,8/10/2019 5:44,8/16/2019 21:03,1,159.3167,159.3167,1,Horizontal,4,141,4.172,1,0,week
0eea83eef6e7e21ba9a3092a9d,8/10/2019 5:44,8/16/2019 21:03,1,159.3167,159.3167,1,Vertical,0,142,1.073,1,0,week
0eea83eef6e7e21ba9a3092a9d,8/10/2019 5:44,8/16/2019 21:03,1,159.3167,159.3167,1,Vertical,-4,143,1.179,1,0,week
0eea83eef6e7e21ba9a3092a9d,8/10/2019 5:44,8/16/2019 21:03,1,159.3167,159.3167,1,Vertical,2,144,2.971,1,0,week
0eea83eef6e7e21ba9a3092a9d,8/10/2019 5:44,8/16/2019 21:03,1,159.3167,159.3167,1,Horizontal,0,145,3.536,1,0,week
0eea83eef6e7e21ba9a3092a9d,8/10/2019 5:44,8/16/2019 21:03,1,159.3167,159.3167,1,Horizontal,2,146,0.992,1,0,week
0eea83eef6e7e21ba9a3092a9d,8/10/2019 5:44,8/16/2019 21:03,1,159.3167,159.3167,1,Horizontal,2,147,1.068,1,0,week
0eea83eef6e7e21ba9a3092a9d,8/10/2019 5:44,8/16/2019 21:03,1,159.3167,159.3167,1,Vertical,-8,148,1.967,0,0,week
0eea83eef6e7e21ba9a3092a9d,8/10/2019 5:44,8/16/2019 21:03,1,159.3167,159.3167,1,Vertical,-10,149,1.645,1,0,week
0eea83eef6e7e21ba9a3092a9d,8/10/2019 5:44,8/16/2019 21:03,1,159.3167,159.3167,1,Vertical,-2,150,1.14,1,0,week
0eea83eef6e7e21ba9a3092a9d,8/10/2019 5:44,8/16/2019 21:03,1,159.3167,159.3167,1,Horizontal,-4,151,7.543,0,0,week
0eea83eef6e7e21ba9a3092a9d,8/10/2019 5:44,8/16/2019 21:03,1,159.3167,159.3167,1,Horizontal,-10,152,1.611,0,0,week
0eea83eef6e7e21ba9a3092a9d,8/10/2019 5:44,8/16/2019 21:03,1,159.3167,159.3167,1,Horizontal,2,153,2.102,1,0,week
0eea83eef6e7e21ba9a3092a9d,8/10/2019 5:44,8/16/2019 21:03,1,159.3167,159.3167,1,Vertical,0,154,3.102,1,0,week
0eea83eef6e7e21ba9a3092a9d,8/10/2019 5:44,8/16/2019 21:03,1,159.3167,159.3167,1,Vertical,-8,155,3.945,1,0,week
0eea83eef6e7e21ba9a3092a9d,8/10/2019 5:44,8/16/2019 21:03,1,159.3167,159.3167,1,Vertical,2,156,1.085,1,0,week
0eea83eef6e7e21ba9a3092a9d,8/10/2019 5:44,8/16/2019 21:03,1,159.3167,159.3167,1,Horizontal,0,157,3.399,1,0,week
0eea83eef6e7e21ba9a3092a9d,8/10/2019 5:44,8/16/2019 21:03,1,159.3167,159.3167,1,Horizontal,4,158,1.603,1,0,week
0eea83eef6e7e21ba9a3092a9d,8/10/2019 5:44,8/16/2019 21:03,1,159.3167,159.3167,1,Horizontal,-2,159,1.658,0,0,week
0eea83eef6e7e21ba9a3092a9d,8/10/2019 5:44,8/16/2019 21:03,1,159.3167,159.3167,1,Vertical,8,160,2.206,1,0,week
0eea83eef6e7e21ba9a3092a9d,8/10/2019 5:44,8/16/2019 21:03,1,159.3167,159.3167,1,Vertical,-6,161,2.58,1,0,week
0eea83eef6e7e21ba9a3092a9d,8/10/2019 5:44,8/16/2019 21:03,1,159.3167,159.3167,1,Vertical,-4,162,4.1,1,0,week
0eea83eef6e7e21ba9a3092a9d,8/10/2019 5:44,8/16/2019 21:03,1,159.3167,159.3167,1,Horizontal,2,163,2.36,1,0,week
0eea83eef6e7e21ba9a3092a9d,8/10/2019 5:44,8/16/2019 21:03,1,159.3167,159.3167,1,Horizontal,8,164,2.659,1,0,week
0eea83eef6e7e21ba9a3092a9d,8/10/2019 5:44,8/16/2019 21:03,1,159.3167,159.3167,1,Horizontal,-8,165,3.406,0,0,week
0eea83eef6e7e21ba9a3092a9d,8/10/2019 5:44,8/16/2019 21:03,1,159.3167,159.3167,1,Vertical,-10,166,4.026,1,0,week
0eea83eef6e7e21ba9a3092a9d,8/10/2019 5:44,8/16/2019 21:03,1,159.3167,159.3167,1,Vertical,10,167,1.136,1,0,week
0eea83eef6e7e21ba9a3092a9d,8/10/2019 5:44,8/16/2019 21:03,1,159.3167,159.3167,1,Vertical,-4,168,1.488,1,0,week
0eea83eef6e7e21ba9a3092a9d,8/10/2019 5:44,8/16/2019 21:03,1,159.3167,159.3167,1,Horizontal,8,169,7.299,1,0,week
0eea83eef6e7e21ba9a3092a9d,8/10/2019 5:44,8/16/2019 21:03,1,159.3167,159.3167,1,Horizontal,8,170,1.656,1,0,week
0eea83eef6e7e21ba9a3092a9d,8/10/2019 5:44,8/16/2019 21:03,1,159.3167,159.3167,1,Horizontal,-8,171,1.581,0,0,week
0eea83eef6e7e21ba9a3092a9d,8/10/2019 5:44,8/16/2019 21:03,1,159.3167,159.3167,1,Vertical,0,172,1.036,1,0,week
0eea83eef6e7e21ba9a3092a9d,8/10/2019 5:44,8/16/2019 21:03,1,159.3167,159.3167,1,Vertical,8,173,1.102,1,0,week
0eea83eef6e7e21ba9a3092a9d,8/10/2019 5:44,8/16/2019 21:03,1,159.3167,159.3167,1,Vertical,-2,174,1.345,1,0,week
0eea83eef6e7e21ba9a3092a9d,8/10/2019 5:44,8/16/2019 21:03,1,159.3167,159.3167,1,Horizontal,0,175,3.336,1,0,week
0eea83eef6e7e21ba9a3092a9d,8/10/2019 5:44,8/16/2019 21:03,1,159.3167,159.3167,1,Horizontal,-8,176,1.209,0,0,week
0eea83eef6e7e21ba9a3092a9d,8/10/2019 5:44,8/16/2019 21:03,1,159.3167,159.3167,1,Horizontal,-4,177,2.333,0,0,week
0eea83eef6e7e21ba9a3092a9d,8/10/2019 5:44,8/16/2019 21:03,1,159.3167,159.3167,1,Vertical,8,178,2.98,1,0,week
0eea83eef6e7e21ba9a3092a9d,8/10/2019 5:44,8/16/2019 21:03,1,159.3167,159.3167,1,Vertical,-8,179,2.789,1,0,week
0eea83eef6e7e21ba9a3092a9d,8/10/2019 5:44,8/16/2019 21:03,1,159.3167,159.3167,1,Vertical,2,180,0.893,1,0,week
0eea83eef6e7e21ba9a3092a9d,8/10/2019 5:44,8/16/2019 21:03,1,159.3167,159.3167,1,Horizontal,10,181,2.85,1,0,week
0eea83eef6e7e21ba9a3092a9d,8/10/2019 5:44,8/16/2019 21:03,1,159.3167,159.3167,1,Horizontal,-6,182,0.87,0,0,week
0eea83eef6e7e21ba9a3092a9d,8/10/2019 5:44,8/16/2019 21:03,1,159.3167,159.3167,1,Horizontal,4,183,3.805,1,0,week
0eea83eef6e7e21ba9a3092a9d,8/10/2019 5:44,8/16/2019 21:03,1,159.3167,159.3167,1,Vertical,-6,184,1.206,1,0,week
0eea83eef6e7e21ba9a3092a9d,8/10/2019 5:44,8/16/2019 21:03,1,159.3167,159.3167,1,Vertical,-6,185,1.222,1,0,week
0eea83eef6e7e21ba9a3092a9d,8/10/2019 5:44,8/16/2019 21:03,1,159.3167,159.3167,1,Vertical,-10,186,4.617,0,0,week
0eea83eef6e7e21ba9a3092a9d,8/10/2019 5:44,8/16/2019 21:03,1,159.3167,159.3167,1,Horizontal,8,187,4.577,1,0,week
0eea83eef6e7e21ba9a3092a9d,8/10/2019 5:44,8/16/2019 21:03,1,159.3167,159.3167,1,Horizontal,-6,188,2.635,0,0,week
0eea83eef6e7e21ba9a3092a9d,8/10/2019 5:44,8/16/2019 21:03,1,159.3167,159.3167,1,Horizontal,-6,189,4.574,0,0,week
0eea83eef6e7e21ba9a3092a9d,8/10/2019 5:44,8/16/2019 21:03,1,159.3167,159.3167,1,Vertical,0,190,2.831,1,0,week
0eea83eef6e7e21ba9a3092a9d,8/10/2019 5:44,8/16/2019 21:03,1,159.3167,159.3167,1,Vertical,6,191,0.956,1,0,week
0eea83eef6e7e21ba9a3092a9d,8/10/2019 5:44,8/16/2019 21:03,1,159.3167,159.3167,1,Vertical,10,192,1.053,1,0,week
0eea83eef6e7e21ba9a3092a9d,8/10/2019 5:44,8/16/2019 21:03,1,159.3167,159.3167,1,Horizontal,0,193,2.493,1,0,week
0eea83eef6e7e21ba9a3092a9d,8/10/2019 5:44,8/16/2019 21:03,1,159.3167,159.3167,1,Horizontal,6,194,0.811,1,0,week
0eea83eef6e7e21ba9a3092a9d,8/10/2019 5:44,8/16/2019 21:03,1,159.3167,159.3167,1,Horizontal,2,195,1.006,1,0,week
0eea83eef6e7e21ba9a3092a9d,8/10/2019 5:44,8/16/2019 21:03,1,159.3167,159.3167,1,Vertical,-8,196,1.293,1,0,week
0eea83eef6e7e21ba9a3092a9d,8/10/2019 5:44,8/16/2019 21:03,1,159.3167,159.3167,1,Vertical,-4,197,1.133,1,0,week
0eea83eef6e7e21ba9a3092a9d,8/10/2019 5:44,8/16/2019 21:03,1,159.3167,159.3167,1,Vertical,8,198,1.854,1,0,week
0eea83eef6e7e21ba9a3092a9d,8/10/2019 5:44,8/16/2019 21:03,1,159.3167,159.3167,1,Horizontal,0,199,3.778,1,0,week
0eea83eef6e7e21ba9a3092a9d,8/10/2019 5:44,8/16/2019 21:03,1,159.3167,159.3167,1,Horizontal,-10,200,2.099,0,0,week
0eea83eef6e7e21ba9a3092a9d,8/10/2019 5:44,8/16/2019 21:03,1,159.3167,159.3167,1,Horizontal,-8,201,1.915,0,0,week
0eea83eef6e7e21ba9a3092a9d,8/10/2019 5:44,8/16/2019 21:03,1,159.3167,159.3167,1,Vertical,-8,202,4.211,1,0,week
0eea83eef6e7e21ba9a3092a9d,8/10/2019 5:44,8/16/2019 21:03,1,159.3167,159.3167,1,Vertical,4,203,2.46,1,0,week
0eea83eef6e7e21ba9a3092a9d,8/10/2019 5:44,8/16/2019 21:03,1,159.3167,159.3167,1,Vertical,4,204,3.715,1,0,week
0eea83eef6e7e21ba9a3092a9d,8/10/2019 5:44,8/16/2019 21:03,1,159.3167,159.3167,1,Horizontal,0,205,4.212,1,0,week
0eea83eef6e7e21ba9a3092a9d,8/10/2019 5:44,8/16/2019 21:03,1,159.3167,159.3167,1,Horizontal,10,206,5.274,1,0,week
0eea83eef6e7e21ba9a3092a9d,8/10/2019 5:44,8/16/2019 21:03,1,159.3167,159.3167,1,Horizontal,-2,207,5.223,0,0,week
0eea83eef6e7e21ba9a3092a9d,8/10/2019 5:44,8/16/2019 21:03,1,159.3167,159.3167,1,Vertical,0,208,2.627,1,0,week
0eea83eef6e7e21ba9a3092a9d,8/10/2019 5:44,8/16/2019 21:03,1,159.3167,159.3167,1,Vertical,4,209,2.164,1,0,week
0eea83eef6e7e21ba9a3092a9d,8/10/2019 5:44,8/16/2019 21:03,1,159.3167,159.3167,1,Vertical,8,210,3.817,1,0,week
0eea83eef6e7e21ba9a3092a9d,8/10/2019 5:44,8/16/2019 21:03,1,159.3167,159.3167,1,Horizontal,6,211,2.606,1,0,week
0eea83eef6e7e21ba9a3092a9d,8/10/2019 5:44,8/16/2019 21:03,1,159.3167,159.3167,1,Horizontal,-8,212,5.942,0,0,week
0eea83eef6e7e21ba9a3092a9d,8/10/2019 5:44,8/16/2019 21:03,1,159.3167,159.3167,1,Horizontal,-10,213,2.098,0,0,week
0eea83eef6e7e21ba9a3092a9d,8/10/2019 5:44,8/16/2019 21:03,1,159.3167,159.3167,1,Vertical,0,214,2.682,1,0,week
0eea83eef6e7e21ba9a3092a9d,8/10/2019 5:44,8/16/2019 21:03,1,159.3167,159.3167,1,Vertical,10,215,2.414,1,0,week
0eea83eef6e7e21ba9a3092a9d,8/10/2019 5:44,8/16/2019 21:03,1,159.3167,159.3167,1,Vertical,4,216,2.572,1,0,week
0eea83eef6e7e21ba9a3092a9d,8/10/2019 5:44,8/16/2019 21:03,1,159.3167,159.3167,1,Horizontal,0,217,7.157,1,0,week
0eea83eef6e7e21ba9a3092a9d,8/10/2019 5:44,8/16/2019 21:03,1,159.3167,159.3167,1,Horizontal,-4,218,3.235,0,0,week
0eea83eef6e7e21ba9a3092a9d,8/10/2019 5:44,8/16/2019 21:03,1,159.3167,159.3167,1,Horizontal,10,219,2.424,1,0,week
0eea83eef6e7e21ba9a3092a9d,8/10/2019 5:44,8/16/2019 21:03,1,159.3167,159.3167,1,Vertical,2,220,2.405,1,0,week
0eea83eef6e7e21ba9a3092a9d,8/10/2019 5:44,8/16/2019 21:03,1,159.3167,159.3167,1,Vertical,-4,221,5.661,1,0,week
0eea83eef6e7e21ba9a3092a9d,8/10/2019 5:44,8/16/2019 21:03,1,159.3167,159.3167,1,Vertical,-2,222,2.185,1,0,week
0eea83eef6e7e21ba9a3092a9d,8/10/2019 5:44,8/16/2019 21:03,1,159.3167,159.3167,1,Horizontal,0,223,3.233,0,0,week
0eea83eef6e7e21ba9a3092a9d,8/10/2019 5:44,8/16/2019 21:03,1,159.3167,159.3167,1,Horizontal,10,224,2.541,1,0,week
0eea83eef6e7e21ba9a3092a9d,8/10/2019 5:44,8/16/2019 21:03,1,159.3167,159.3167,1,Horizontal,-10,225,1.574,0,0,week
0eea83eef6e7e21ba9a3092a9d,8/10/2019 5:44,8/16/2019 21:03,1,159.3167,159.3167,1,Vertical,0,226,1.166,1,0,week
0eea83eef6e7e21ba9a3092a9d,8/10/2019 5:44,8/16/2019 21:03,1,159.3167,159.3167,1,Vertical,6,227,2.409,1,0,week
0eea83eef6e7e21ba9a3092a9d,8/10/2019 5:44,8/16/2019 21:03,1,159.3167,159.3167,1,Vertical,6,228,1.019,1,0,week
0eea83eef6e7e21ba9a3092a9d,8/10/2019 5:44,8/16/2019 21:03,1,159.3167,159.3167,1,Horizontal,-10,229,1.781,0,0,week
0eea83eef6e7e21ba9a3092a9d,8/10/2019 5:44,8/16/2019 21:03,1,159.3167,159.3167,1,Horizontal,10,230,2.329,1,0,week
0eea83eef6e7e21ba9a3092a9d,8/10/2019 5:44,8/16/2019 21:03,1,159.3167,159.3167,1,Horizontal,4,231,3.741,1,0,week
0eea83eef6e7e21ba9a3092a9d,8/10/2019 5:44,8/16/2019 21:03,1,159.3167,159.3167,1,Vertical,0,232,2.261,1,0,week
0eea83eef6e7e21ba9a3092a9d,8/10/2019 5:44,8/16/2019 21:03,1,159.3167,159.3167,1,Vertical,-6,233,2.934,1,0,week
0eea83eef6e7e21ba9a3092a9d,8/10/2019 5:44,8/16/2019 21:03,1,159.3167,159.3167,1,Vertical,-2,234,1.57,1,0,week
0eea83eef6e7e21ba9a3092a9d,8/10/2019 5:44,8/16/2019 21:03,1,159.3167,159.3167,1,Horizontal,-2,235,4.737,0,0,week
0eea83eef6e7e21ba9a3092a9d,8/10/2019 5:44,8/16/2019 21:03,1,159.3167,159.3167,1,Horizontal,-4,236,3.335,0,0,week
0eea83eef6e7e21ba9a3092a9d,8/10/2019 5:44,8/16/2019 21:03,1,159.3167,159.3167,1,Horizontal,-6,237,2.083,0,0,week
0eea83eef6e7e21ba9a3092a9d,8/10/2019 5:44,8/16/2019 21:03,1,159.3167,159.3167,1,Vertical,-10,238,6.396,0,0,week
0eea83eef6e7e21ba9a3092a9d,8/10/2019 5:44,8/16/2019 21:03,1,159.3167,159.3167,1,Vertical,10,239,1.103,1,0,week
0eea83eef6e7e21ba9a3092a9d,8/10/2019 5:44,8/16/2019 21:03,1,159.3167,159.3167,1,Vertical,-10,240,2.41,0,0,week
0eea83eef6e7e21ba9a3092a9d,8/10/2019 5:44,8/16/2019 21:03,1,159.3167,159.3167,1,Horizontal,10,241,2.689,1,0,week
0eea83eef6e7e21ba9a3092a9d,8/10/2019 5:44,8/16/2019 21:03,1,159.3167,159.3167,1,Horizontal,-6,242,1.899,0,0,week
0eea83eef6e7e21ba9a3092a9d,8/10/2019 5:44,8/16/2019 21:03,1,159.3167,159.3167,1,Horizontal,-10,243,2.925,0,0,week
0eea83eef6e7e21ba9a3092a9d,8/10/2019 5:44,8/16/2019 21:03,1,159.3167,159.3167,1,Vertical,-4,244,2.304,1,0,week
0eea83eef6e7e21ba9a3092a9d,8/10/2019 5:44,8/16/2019 21:03,1,159.3167,159.3167,1,Vertical,10,245,2.073,1,0,week
0eea83eef6e7e21ba9a3092a9d,8/10/2019 5:44,8/16/2019 21:03,1,159.3167,159.3167,1,Vertical,-10,246,2.295,1,0,week
0eea83eef6e7e21ba9a3092a9d,8/10/2019 5:44,8/16/2019 21:03,1,159.3167,159.3167,1,Horizontal,0,247,4.37,1,0,week
0eea83eef6e7e21ba9a3092a9d,8/10/2019 5:44,8/16/2019 21:03,1,159.3167,159.3167,1,Horizontal,-4,248,2.431,0,0,week
0eea83eef6e7e21ba9a3092a9d,8/10/2019 5:44,8/16/2019 21:03,1,159.3167,159.3167,1,Horizontal,-2,249,3.199,0,0,week
0eea83eef6e7e21ba9a3092a9d,8/10/2019 5:44,8/16/2019 21:03,1,159.3167,159.3167,1,Vertical,2,250,2.511,1,0,week
0eea83eef6e7e21ba9a3092a9d,8/10/2019 5:44,8/16/2019 21:03,1,159.3167,159.3167,1,Vertical,-4,251,2.079,1,0,week
0eea83eef6e7e21ba9a3092a9d,8/10/2019 5:44,8/16/2019 21:03,1,159.3167,159.3167,1,Vertical,6,252,2.249,1,0,week
0eea83eef6e7e21ba9a3092a9d,8/10/2019 5:44,8/16/2019 21:03,1,159.3167,159.3167,1,Horizontal,0,253,6.119,1,0,week
0eea83eef6e7e21ba9a3092a9d,8/10/2019 5:44,8/16/2019 21:03,1,159.3167,159.3167,1,Horizontal,-2,254,3.462,0,0,week
0eea83eef6e7e21ba9a3092a9d,8/10/2019 5:44,8/16/2019 21:03,1,159.3167,159.3167,1,Horizontal,10,255,1.03,1,0,week
0eea83eef6e7e21ba9a3092a9d,8/10/2019 5:44,8/16/2019 21:03,1,159.3167,159.3167,1,Vertical,0,256,1.013,1,0,week
0eea83eef6e7e21ba9a3092a9d,8/10/2019 5:44,8/16/2019 21:03,1,159.3167,159.3167,1,Vertical,2,257,1.239,1,0,week
0eea83eef6e7e21ba9a3092a9d,8/10/2019 5:44,8/16/2019 21:03,1,159.3167,159.3167,1,Vertical,-10,258,1.529,0,0,week
0eea83eef6e7e21ba9a3092a9d,8/10/2019 5:44,8/16/2019 21:03,1,159.3167,159.3167,1,Horizontal,4,259,1.446,1,0,week
0eea83eef6e7e21ba9a3092a9d,8/10/2019 5:44,8/16/2019 21:03,1,159.3167,159.3167,1,Horizontal,-8,260,1.681,0,0,week
0eea83eef6e7e21ba9a3092a9d,8/10/2019 5:44,8/16/2019 21:03,1,159.3167,159.3167,1,Horizontal,4,261,1.872,1,0,week
0eea83eef6e7e21ba9a3092a9d,8/10/2019 5:44,8/16/2019 21:03,1,159.3167,159.3167,1,Vertical,6,262,3.449,1,0,week
0eea83eef6e7e21ba9a3092a9d,8/10/2019 5:44,8/16/2019 21:03,1,159.3167,159.3167,1,Vertical,10,263,1.027,1,0,week
0eea83eef6e7e21ba9a3092a9d,8/10/2019 5:44,8/16/2019 21:03,1,159.3167,159.3167,1,Vertical,-2,264,3.023,1,0,week
0eea83eef6e7e21ba9a3092a9d,8/10/2019 5:44,8/16/2019 21:03,1,159.3167,159.3167,1,Horizontal,0,265,3.396,0,0,week
0eea83eef6e7e21ba9a3092a9d,8/10/2019 5:44,8/16/2019 21:03,1,159.3167,159.3167,1,Horizontal,4,266,1.815,1,0,week
0eea83eef6e7e21ba9a3092a9d,8/10/2019 5:44,8/16/2019 21:03,1,159.3167,159.3167,1,Horizontal,-4,267,2.591,0,0,week
0eea83eef6e7e21ba9a3092a9d,8/10/2019 5:44,8/16/2019 21:03,1,159.3167,159.3167,1,Vertical,0,268,1.159,1,0,week
0eea83eef6e7e21ba9a3092a9d,8/10/2019 5:44,8/16/2019 21:03,1,159.3167,159.3167,1,Vertical,-2,269,0.981,1,0,week
0eea83eef6e7e21ba9a3092a9d,8/10/2019 5:44,8/16/2019 21:03,1,159.3167,159.3167,1,Vertical,4,270,1.846,1,0,week
0eea83eef6e7e21ba9a3092a9d,8/10/2019 5:44,8/16/2019 21:03,1,159.3167,159.3167,1,Horizontal,-8,271,2.811,0,0,week
0eea83eef6e7e21ba9a3092a9d,8/10/2019 5:44,8/16/2019 21:03,1,159.3167,159.3167,1,Horizontal,-8,272,0.265,0,0,week
0eea83eef6e7e21ba9a3092a9d,8/10/2019 5:44,8/16/2019 21:03,1,159.3167,159.3167,1,Horizontal,6,273,1.119,1,0,week
0eea83eef6e7e21ba9a3092a9d,8/10/2019 5:44,8/16/2019 21:03,1,159.3167,159.3167,1,Vertical,-10,274,3.394,0,0,week
0eea83eef6e7e21ba9a3092a9d,8/10/2019 5:44,8/16/2019 21:03,1,159.3167,159.3167,1,Vertical,2,275,1.468,1,0,week
0eea83eef6e7e21ba9a3092a9d,8/10/2019 5:44,8/16/2019 21:03,1,159.3167,159.3167,1,Vertical,-2,276,1.386,1,0,week
0eea83eef6e7e21ba9a3092a9d,8/10/2019 5:44,8/16/2019 21:03,1,159.3167,159.3167,1,Horizontal,0,277,2.374,1,0,week
0eea83eef6e7e21ba9a3092a9d,8/10/2019 5:44,8/16/2019 21:03,1,159.3167,159.3167,1,Horizontal,-4,278,2.38,0,0,week
0eea83eef6e7e21ba9a3092a9d,8/10/2019 5:44,8/16/2019 21:03,1,159.3167,159.3167,1,Horizontal,-6,279,1.271,0,0,week
0eea83eef6e7e21ba9a3092a9d,8/10/2019 5:44,8/16/2019 21:03,1,159.3167,159.3167,1,Vertical,0,280,2.311,1,0,week
0eea83eef6e7e21ba9a3092a9d,8/10/2019 5:44,8/16/2019 21:03,1,159.3167,159.3167,1,Vertical,10,281,1.595,1,0,week
0eea83eef6e7e21ba9a3092a9d,8/10/2019 5:44,8/16/2019 21:03,1,159.3167,159.3167,1,Vertical,-4,282,5.264,1,0,week
0eea83eef6e7e21ba9a3092a9d,8/10/2019 5:44,8/16/2019 21:03,1,159.3167,159.3167,1,Horizontal,4,283,1.652,1,0,week
0eea83eef6e7e21ba9a3092a9d,8/10/2019 5:44,8/16/2019 21:03,1,159.3167,159.3167,1,Horizontal,6,284,3.658,1,0,week
0eea83eef6e7e21ba9a3092a9d,8/10/2019 5:44,8/16/2019 21:03,1,159.3167,159.3167,1,Horizontal,10,285,2.78,1,0,week
0eea83eef6e7e21ba9a3092a9d,8/10/2019 5:44,8/16/2019 21:03,1,159.3167,159.3167,1,Vertical,0,286,1.686,1,0,week
0eea83eef6e7e21ba9a3092a9d,8/10/2019 5:44,8/16/2019 21:03,1,159.3167,159.3167,1,Vertical,-8,287,1.683,0,0,week
0eea83eef6e7e21ba9a3092a9d,8/10/2019 5:44,8/16/2019 21:03,1,159.3167,159.3167,1,Vertical,8,288,1.045,1,0,week
0eea83eef6e7e21ba9a3092a9d,8/10/2019 5:44,8/16/2019 21:03,1,159.3167,159.3167,1,Horizontal,0,289,5.446,0,0,week
0eea83eef6e7e21ba9a3092a9d,8/10/2019 5:44,8/16/2019 21:03,1,159.3167,159.3167,1,Horizontal,2,290,2.328,1,0,week
0eea83eef6e7e21ba9a3092a9d,8/10/2019 5:44,8/16/2019 21:03,1,159.3167,159.3167,1,Horizontal,-2,291,3.081,0,0,week
0eea83eef6e7e21ba9a3092a9d,8/10/2019 5:44,8/16/2019 21:03,1,159.3167,159.3167,1,Vertical,4,292,3.022,1,0,week
0eea83eef6e7e21ba9a3092a9d,8/10/2019 5:44,8/16/2019 21:03,1,159.3167,159.3167,1,Vertical,-6,293,1.376,0,0,week
0eea83eef6e7e21ba9a3092a9d,8/10/2019 5:44,8/16/2019 21:03,1,159.3167,159.3167,1,Vertical,4,294,1.058,1,0,week
0eea83eef6e7e21ba9a3092a9d,8/10/2019 5:44,8/16/2019 21:03,1,159.3167,159.3167,1,Horizontal,-2,295,1.397,0,0,week
0eea83eef6e7e21ba9a3092a9d,8/10/2019 5:44,8/16/2019 21:03,1,159.3167,159.3167,1,Horizontal,-8,296,1.755,0,0,week
0eea83eef6e7e21ba9a3092a9d,8/10/2019 5:44,8/16/2019 21:03,1,159.3167,159.3167,1,Horizontal,2,297,1.391,1,0,week
0eea83eef6e7e21ba9a3092a9d,8/10/2019 5:44,8/16/2019 21:03,1,159.3167,159.3167,1,Vertical,0,298,1.577,1,0,week
0eea83eef6e7e21ba9a3092a9d,8/10/2019 5:44,8/16/2019 21:03,1,159.3167,159.3167,1,Vertical,4,299,1.113,1,0,week
0eea83eef6e7e21ba9a3092a9d,8/10/2019 5:44,8/16/2019 21:03,1,159.3167,159.3167,1,Vertical,6,300,0.988,1,0,week
0eea83eef6e7e21ba9a3092a9d,8/10/2019 5:44,8/16/2019 21:03,1,159.3167,159.3167,1,Horizontal,0,301,2.832,1,0,week
0eea83eef6e7e21ba9a3092a9d,8/10/2019 5:44,8/16/2019 21:03,1,159.3167,159.3167,1,Horizontal,6,302,1.724,1,0,week
0eea83eef6e7e21ba9a3092a9d,8/10/2019 5:44,8/16/2019 21:03,1,159.3167,159.3167,1,Horizontal,8,303,1.157,1,0,week
0eea83eef6e7e21ba9a3092a9d,8/10/2019 5:44,8/16/2019 21:03,1,159.3167,159.3167,1,Vertical,0,304,0.992,1,0,week
0eea83eef6e7e21ba9a3092a9d,8/10/2019 5:44,8/16/2019 21:03,1,159.3167,159.3167,1,Vertical,8,305,1.561,1,0,week
0eea83eef6e7e21ba9a3092a9d,8/10/2019 5:44,8/16/2019 21:03,1,159.3167,159.3167,1,Vertical,8,306,0.797,1,0,week
0eea83eef6e7e21ba9a3092a9d,8/10/2019 5:44,8/16/2019 21:03,1,159.3167,159.3167,1,Horizontal,0,307,3.607,1,0,week
0eea83eef6e7e21ba9a3092a9d,8/10/2019 5:44,8/16/2019 21:03,1,159.3167,159.3167,1,Horizontal,-10,308,1.655,0,0,week
0eea83eef6e7e21ba9a3092a9d,8/10/2019 5:44,8/16/2019 21:03,1,159.3167,159.3167,1,Horizontal,10,309,1.083,1,0,week
0eea83eef6e7e21ba9a3092a9d,8/10/2019 5:44,8/16/2019 21:03,1,159.3167,159.3167,1,Vertical,-6,310,0.375,1,0,week
0eea83eef6e7e21ba9a3092a9d,8/10/2019 5:44,8/16/2019 21:03,1,159.3167,159.3167,1,Vertical,-8,311,1.962,0,0,week
0eea83eef6e7e21ba9a3092a9d,8/10/2019 5:44,8/16/2019 21:03,1,159.3167,159.3167,1,Vertical,-2,312,1.67,1,0,week
0eea83eef6e7e21ba9a3092a9d,8/10/2019 5:44,8/16/2019 21:03,1,159.3167,159.3167,1,Horizontal,8,313,0.87,1,0,week
0eea83eef6e7e21ba9a3092a9d,8/10/2019 5:44,8/16/2019 21:03,1,159.3167,159.3167,1,Horizontal,-8,314,0.758,0,0,week
0eea83eef6e7e21ba9a3092a9d,8/10/2019 5:44,8/16/2019 21:03,1,159.3167,159.3167,1,Horizontal,-2,315,1.111,0,0,week
0eea83eef6e7e21ba9a3092a9d,8/10/2019 5:44,8/16/2019 21:03,1,159.3167,159.3167,1,Vertical,0,316,1.128,1,0,week
0eea83eef6e7e21ba9a3092a9d,8/10/2019 5:44,8/16/2019 21:03,1,159.3167,159.3167,1,Vertical,8,317,1.08,1,0,week
0eea83eef6e7e21ba9a3092a9d,8/10/2019 5:44,8/16/2019 21:03,1,159.3167,159.3167,1,Vertical,-8,318,3.68,0,0,week
0eea83eef6e7e21ba9a3092a9d,8/10/2019 5:44,8/16/2019 21:03,1,159.3167,159.3167,1,Horizontal,-6,319,1.232,0,0,week
0eea83eef6e7e21ba9a3092a9d,8/10/2019 5:44,8/16/2019 21:03,1,159.3167,159.3167,1,Horizontal,2,320,1.954,1,0,week
0eea83eef6e7e21ba9a3092a9d,8/10/2019 5:44,8/16/2019 21:03,1,159.3167,159.3167,1,Horizontal,6,321,2.763,1,0,week
0eea83eef6e7e21ba9a3092a9d,8/10/2019 5:44,8/16/2019 21:03,1,159.3167,159.3167,1,Vertical,-10,322,2.266,0,0,week
0eea83eef6e7e21ba9a3092a9d,8/10/2019 5:44,8/16/2019 21:03,1,159.3167,159.3167,1,Vertical,2,323,0.925,1,0,week
0eea83eef6e7e21ba9a3092a9d,8/10/2019 5:44,8/16/2019 21:03,1,159.3167,159.3167,1,Vertical,2,324,1.038,1,0,week
0eea83eef6e7e21ba9a3092a9d,8/10/2019 5:44,8/16/2019 21:03,1,159.3167,159.3167,1,Horizontal,0,325,2.029,1,0,week
0eea83eef6e7e21ba9a3092a9d,8/10/2019 5:44,8/16/2019 21:03,1,159.3167,159.3167,1,Horizontal,8,326,1.103,1,0,week
0eea83eef6e7e21ba9a3092a9d,8/10/2019 5:44,8/16/2019 21:03,1,159.3167,159.3167,1,Horizontal,-4,327,0.977,0,0,week
0eea83eef6e7e21ba9a3092a9d,8/10/2019 5:44,8/16/2019 21:03,1,159.3167,159.3167,1,Vertical,0,328,0.97,1,0,week
0eea83eef6e7e21ba9a3092a9d,8/10/2019 5:44,8/16/2019 21:03,1,159.3167,159.3167,1,Vertical,6,329,2.16,1,0,week
0eea83eef6e7e21ba9a3092a9d,8/10/2019 5:44,8/16/2019 21:03,1,159.3167,159.3167,1,Vertical,6,330,1.392,1,0,week
0eea83eef6e7e21ba9a3092a9d,8/10/2019 5:44,8/16/2019 21:03,1,159.3167,159.3167,1,Horizontal,0,331,6.129,1,0,week
0eea83eef6e7e21ba9a3092a9d,8/10/2019 5:44,8/16/2019 21:03,1,159.3167,159.3167,1,Horizontal,-6,332,1.762,0,0,week
0eea83eef6e7e21ba9a3092a9d,8/10/2019 5:44,8/16/2019 21:03,1,159.3167,159.3167,1,Horizontal,8,333,2.728,1,0,week
0eea83eef6e7e21ba9a3092a9d,8/10/2019 5:44,8/16/2019 21:03,1,159.3167,159.3167,1,Vertical,-6,334,5.715,1,0,week
0eea83eef6e7e21ba9a3092a9d,8/10/2019 5:44,8/16/2019 21:03,1,159.3167,159.3167,1,Vertical,-10,335,2.566,1,0,week
0eea83eef6e7e21ba9a3092a9d,8/10/2019 5:44,8/16/2019 21:03,1,159.3167,159.3167,1,Vertical,-8,336,1.199,0,0,week
0eea83eef6e7e21ba9a3092a9d,8/10/2019 5:44,8/16/2019 21:03,1,159.3167,159.3167,1,Horizontal,-4,337,1.073,0,0,week
0eea83eef6e7e21ba9a3092a9d,8/10/2019 5:44,8/16/2019 21:03,1,159.3167,159.3167,1,Horizontal,-10,338,0.823,0,0,week
0eea83eef6e7e21ba9a3092a9d,8/10/2019 5:44,8/16/2019 21:03,1,159.3167,159.3167,1,Horizontal,2,339,1.05,1,0,week
0eea83eef6e7e21ba9a3092a9d,8/10/2019 5:44,8/16/2019 21:03,1,159.3167,159.3167,1,Vertical,0,340,1.085,1,0,week
0eea83eef6e7e21ba9a3092a9d,8/10/2019 5:44,8/16/2019 21:03,1,159.3167,159.3167,1,Vertical,-4,341,0.877,1,0,week
0eea83eef6e7e21ba9a3092a9d,8/10/2019 5:44,8/16/2019 21:03,1,159.3167,159.3167,1,Vertical,-4,342,0.803,1,0,week
0eea83eef6e7e21ba9a3092a9d,8/10/2019 5:44,8/16/2019 21:03,1,159.3167,159.3167,1,Horizontal,4,343,1.186,1,0,week
0eea83eef6e7e21ba9a3092a9d,8/10/2019 5:44,8/16/2019 21:03,1,159.3167,159.3167,1,Horizontal,-6,344,1.957,0,0,week
0eea83eef6e7e21ba9a3092a9d,8/10/2019 5:44,8/16/2019 21:03,1,159.3167,159.3167,1,Horizontal,-10,345,0.698,0,0,week
0eea83eef6e7e21ba9a3092a9d,8/10/2019 5:44,8/16/2019 21:03,1,159.3167,159.3167,1,Vertical,-6,346,1.598,1,0,week
0eea83eef6e7e21ba9a3092a9d,8/10/2019 5:44,8/16/2019 21:03,1,159.3167,159.3167,1,Vertical,8,347,0.976,1,0,week
0eea83eef6e7e21ba9a3092a9d,8/10/2019 5:44,8/16/2019 21:03,1,159.3167,159.3167,1,Vertical,4,348,0.908,1,0,week
0eea83eef6e7e21ba9a3092a9d,8/10/2019 5:44,8/16/2019 21:03,1,159.3167,159.3167,1,Horizontal,2,349,0.807,1,0,week
0eea83eef6e7e21ba9a3092a9d,8/10/2019 5:44,8/16/2019 21:03,1,159.3167,159.3167,1,Horizontal,8,350,0.811,1,0,week
0eea83eef6e7e21ba9a3092a9d,8/10/2019 5:44,8/16/2019 21:03,1,159.3167,159.3167,1,Horizontal,-10,351,0.73,0,0,week
0eea83eef6e7e21ba9a3092a9d,8/10/2019 5:44,8/16/2019 21:03,1,159.3167,159.3167,1,Vertical,-8,352,1.711,0,0,week
0eea83eef6e7e21ba9a3092a9d,8/10/2019 5:44,8/16/2019 21:03,1,159.3167,159.3167,1,Vertical,-2,353,1.069,1,0,week
0eea83eef6e7e21ba9a3092a9d,8/10/2019 5:44,8/16/2019 21:03,1,159.3167,159.3167,1,Vertical,-6,354,1.118,0,0,week
0eea83eef6e7e21ba9a3092a9d,8/10/2019 5:44,8/16/2019 21:03,1,159.3167,159.3167,1,Horizontal,0,355,2.21,0,0,week
0eea83eef6e7e21ba9a3092a9d,8/10/2019 5:44,8/16/2019 21:03,1,159.3167,159.3167,1,Horizontal,10,356,0.943,1,0,week
0eea83eef6e7e21ba9a3092a9d,8/10/2019 5:44,8/16/2019 21:03,1,159.3167,159.3167,1,Horizontal,6,357,0.887,1,0,week
0eea83eef6e7e21ba9a3092a9d,8/10/2019 5:44,8/16/2019 21:03,1,159.3167,159.3167,1,Vertical,0,358,1.024,1,0,week
0eea83eef6e7e21ba9a3092a9d,8/10/2019 5:44,8/16/2019 21:03,1,159.3167,159.3167,1,Vertical,10,359,0.762,1,0,week
0eea83eef6e7e21ba9a3092a9d,8/10/2019 5:44,8/16/2019 21:03,1,159.3167,159.3167,1,Vertical,10,360,0.833,1,0,week
0eea83eef6e7e21ba9a3092a9d,8/10/2019 5:44,8/16/2019 21:03,1,159.3167,159.3167,1,Horizontal,6,361,3.089,1,0,week
0eea83eef6e7e21ba9a3092a9d,8/10/2019 5:44,8/16/2019 21:03,1,159.3167,159.3167,1,Horizontal,-2,362,2.772,0,0,week
0eea83eef6e7e21ba9a3092a9d,8/10/2019 5:44,8/16/2019 21:03,1,159.3167,159.3167,1,Horizontal,4,363,0.707,1,0,week
0eea83eef6e7e21ba9a3092a9d,8/10/2019 5:44,8/16/2019 21:03,1,159.3167,159.3167,1,Vertical,0,364,1.199,1,0,week
0eea83eef6e7e21ba9a3092a9d,8/10/2019 5:44,8/16/2019 21:03,1,159.3167,159.3167,1,Vertical,6,365,0.787,1,0,week
0eea83eef6e7e21ba9a3092a9d,8/10/2019 5:44,8/16/2019 21:03,1,159.3167,159.3167,1,Vertical,-6,366,1.639,1,0,week
0eea83eef6e7e21ba9a3092a9d,8/10/2019 5:44,8/16/2019 21:03,1,159.3167,159.3167,1,Horizontal,0,367,3.944,1,0,week
0eea83eef6e7e21ba9a3092a9d,8/10/2019 5:44,8/16/2019 21:03,1,159.3167,159.3167,1,Horizontal,6,368,1.908,1,0,week
0eea83eef6e7e21ba9a3092a9d,8/10/2019 5:44,8/16/2019 21:03,1,159.3167,159.3167,1,Horizontal,6,369,1.496,1,0,week
0eea83eef6e7e21ba9a3092a9d,8/10/2019 5:44,8/16/2019 21:03,1,159.3167,159.3167,1,Vertical,-2,370,1.254,1,0,week
0eea83eef6e7e21ba9a3092a9d,8/10/2019 5:44,8/16/2019 21:03,1,159.3167,159.3167,1,Vertical,6,371,0.843,1,0,week
0eea83eef6e7e21ba9a3092a9d,8/10/2019 5:44,8/16/2019 21:03,1,159.3167,159.3167,1,Vertical,4,372,0.847,1,0,week
0eea83eef6e7e21ba9a3092a9d,8/10/2019 5:44,8/16/2019 21:03,1,159.3167,159.3167,1,Horizontal,0,373,1.29,1,0,week
0eea83eef6e7e21ba9a3092a9d,8/10/2019 5:44,8/16/2019 21:03,1,159.3167,159.3167,1,Horizontal,-2,374,1.066,0,0,week
0eea83eef6e7e21ba9a3092a9d,8/10/2019 5:44,8/16/2019 21:03,1,159.3167,159.3167,1,Horizontal,-4,375,1.021,0,0,week
0eea83eef6e7e21ba9a3092a9d,8/10/2019 5:44,8/16/2019 21:03,1,159.3167,159.3167,1,Vertical,0,376,0.917,1,0,week
0eea83eef6e7e21ba9a3092a9d,8/10/2019 5:44,8/16/2019 21:03,1,159.3167,159.3167,1,Vertical,2,377,0.846,1,0,week
0eea83eef6e7e21ba9a3092a9d,8/10/2019 5:44,8/16/2019 21:03,1,159.3167,159.3167,1,Vertical,10,378,0.783,1,0,week
0eea83eef6e7e21ba9a3092a9d,8/10/2019 5:44,8/16/2019 21:03,1,159.3167,159.3167,1,Horizontal,-6,379,0.928,0,0,week
0eea83eef6e7e21ba9a3092a9d,8/10/2019 5:44,8/16/2019 21:03,1,159.3167,159.3167,1,Horizontal,8,380,2.201,1,0,week
0eea83eef6e7e21ba9a3092a9d,8/10/2019 5:44,8/16/2019 21:03,1,159.3167,159.3167,1,Horizontal,4,381,1.787,1,0,week
0eea83eef6e7e21ba9a3092a9d,8/10/2019 5:44,8/16/2019 21:03,1,159.3167,159.3167,1,Vertical,0,382,0.992,1,0,week
0eea83eef6e7e21ba9a3092a9d,8/10/2019 5:44,8/16/2019 21:03,1,159.3167,159.3167,1,Vertical,-4,383,1.6,1,0,week
0eea83eef6e7e21ba9a3092a9d,8/10/2019 5:44,8/16/2019 21:03,1,159.3167,159.3167,1,Vertical,2,384,0.903,1,0,week
0eea83eef6e7e21ba9a3092a9d,8/10/2019 5:44,8/16/2019 21:03,1,159.3167,159.3167,1,Horizontal,0,385,1.773,1,0,week
0eea83eef6e7e21ba9a3092a9d,8/10/2019 5:44,8/16/2019 21:03,1,159.3167,159.3167,1,Horizontal,2,386,1.73,1,0,week
0eea83eef6e7e21ba9a3092a9d,8/10/2019 5:44,8/16/2019 21:03,1,159.3167,159.3167,1,Horizontal,2,387,1.233,1,0,week
0eea83eef6e7e21ba9a3092a9d,8/10/2019 5:44,8/16/2019 21:03,1,159.3167,159.3167,1,Vertical,-8,388,4.019,1,0,week
0eea83eef6e7e21ba9a3092a9d,8/10/2019 5:44,8/16/2019 21:03,1,159.3167,159.3167,1,Vertical,-10,389,1.313,0,0,week
0eea83eef6e7e21ba9a3092a9d,8/10/2019 5:44,8/16/2019 21:03,1,159.3167,159.3167,1,Vertical,-2,390,1.467,1,0,week
0eea83eef6e7e21ba9a3092a9d,8/10/2019 5:44,8/16/2019 21:03,1,159.3167,159.3167,1,Horizontal,-4,391,3.423,0,0,week
0eea83eef6e7e21ba9a3092a9d,8/10/2019 5:44,8/16/2019 21:03,1,159.3167,159.3167,1,Horizontal,-10,392,2.133,0,0,week
0eea83eef6e7e21ba9a3092a9d,8/10/2019 5:44,8/16/2019 21:03,1,159.3167,159.3167,1,Horizontal,2,393,3.465,1,0,week
0eea83eef6e7e21ba9a3092a9d,8/10/2019 5:44,8/16/2019 21:03,1,159.3167,159.3167,1,Vertical,0,394,1.536,1,0,week
0eea83eef6e7e21ba9a3092a9d,8/10/2019 5:44,8/16/2019 21:03,1,159.3167,159.3167,1,Vertical,-8,395,1.003,1,0,week
0eea83eef6e7e21ba9a3092a9d,8/10/2019 5:44,8/16/2019 21:03,1,159.3167,159.3167,1,Vertical,2,396,0.845,1,0,week
0eea83eef6e7e21ba9a3092a9d,8/10/2019 5:44,8/16/2019 21:03,1,159.3167,159.3167,1,Horizontal,0,397,2.128,0,0,week
0eea83eef6e7e21ba9a3092a9d,8/10/2019 5:44,8/16/2019 21:03,1,159.3167,159.3167,1,Horizontal,4,398,1.087,1,0,week
0eea83eef6e7e21ba9a3092a9d,8/10/2019 5:44,8/16/2019 21:03,1,159.3167,159.3167,1,Horizontal,-2,399,1.208,0,0,week
0eea83eef6e7e21ba9a3092a9d,8/10/2019 5:44,8/16/2019 21:03,1,159.3167,159.3167,1,Vertical,8,400,0.955,1,0,week
0eea83eef6e7e21ba9a3092a9d,8/10/2019 5:44,8/16/2019 21:03,1,159.3167,159.3167,1,Vertical,-6,401,0.907,1,0,week
0eea83eef6e7e21ba9a3092a9d,8/10/2019 5:44,8/16/2019 21:03,1,159.3167,159.3167,1,Vertical,-4,402,1.229,0,0,week
0eea83eef6e7e21ba9a3092a9d,8/10/2019 5:44,8/16/2019 21:03,1,159.3167,159.3167,1,Horizontal,2,403,1.346,1,0,week
0eea83eef6e7e21ba9a3092a9d,8/10/2019 5:44,8/16/2019 21:03,1,159.3167,159.3167,1,Horizontal,8,404,2.191,1,0,week
0eea83eef6e7e21ba9a3092a9d,8/10/2019 5:44,8/16/2019 21:03,1,159.3167,159.3167,1,Horizontal,-8,405,2.299,0,0,week
0eea83eef6e7e21ba9a3092a9d,8/10/2019 5:44,8/16/2019 21:03,1,159.3167,159.3167,1,Vertical,-10,406,5.715,1,0,week
0eea83eef6e7e21ba9a3092a9d,8/10/2019 5:44,8/16/2019 21:03,1,159.3167,159.3167,1,Vertical,10,407,1.936,1,0,week
0eea83eef6e7e21ba9a3092a9d,8/10/2019 5:44,8/16/2019 21:03,1,159.3167,159.3167,1,Vertical,-4,408,1.203,1,0,week
0eea83eef6e7e21ba9a3092a9d,8/10/2019 5:44,8/16/2019 21:03,1,159.3167,159.3167,1,Horizontal,8,409,1.031,1,0,week
0eea83eef6e7e21ba9a3092a9d,8/10/2019 5:44,8/16/2019 21:03,1,159.3167,159.3167,1,Horizontal,8,410,0.837,1,0,week
0eea83eef6e7e21ba9a3092a9d,8/10/2019 5:44,8/16/2019 21:03,1,159.3167,159.3167,1,Horizontal,-8,411,1.811,0,0,week
0eea83eef6e7e21ba9a3092a9d,8/10/2019 5:44,8/16/2019 21:03,1,159.3167,159.3167,1,Vertical,0,412,1.437,1,0,week
0eea83eef6e7e21ba9a3092a9d,8/10/2019 5:44,8/16/2019 21:03,1,159.3167,159.3167,1,Vertical,8,413,0.822,1,0,week
0eea83eef6e7e21ba9a3092a9d,8/10/2019 5:44,8/16/2019 21:03,1,159.3167,159.3167,1,Vertical,-2,414,0.806,1,0,week
0eea83eef6e7e21ba9a3092a9d,8/10/2019 5:44,8/16/2019 21:03,1,159.3167,159.3167,1,Horizontal,0,415,1.806,0,0,week
0eea83eef6e7e21ba9a3092a9d,8/10/2019 5:44,8/16/2019 21:03,1,159.3167,159.3167,1,Horizontal,-8,416,0.962,0,0,week
0eea83eef6e7e21ba9a3092a9d,8/10/2019 5:44,8/16/2019 21:03,1,159.3167,159.3167,1,Horizontal,-4,417,0.826,0,0,week
0eea83eef6e7e21ba9a3092a9d,8/10/2019 5:44,8/16/2019 21:03,1,159.3167,159.3167,1,Vertical,8,418,0.931,1,0,week
0eea83eef6e7e21ba9a3092a9d,8/10/2019 5:44,8/16/2019 21:03,1,159.3167,159.3167,1,Vertical,-8,419,0.96,1,0,week
0eea83eef6e7e21ba9a3092a9d,8/10/2019 5:44,8/16/2019 21:03,1,159.3167,159.3167,1,Vertical,2,420,0.845,1,0,week
0eea83eef6e7e21ba9a3092a9d,8/10/2019 5:44,8/16/2019 21:03,1,159.3167,159.3167,1,Horizontal,10,421,2.29,1,0,week
0eea83eef6e7e21ba9a3092a9d,8/10/2019 5:44,8/16/2019 21:03,1,159.3167,159.3167,1,Horizontal,-6,422,2.033,0,0,week
0eea83eef6e7e21ba9a3092a9d,8/10/2019 5:44,8/16/2019 21:03,1,159.3167,159.3167,1,Horizontal,4,423,0.997,1,0,week
0eea83eef6e7e21ba9a3092a9d,8/10/2019 5:44,8/16/2019 21:03,1,159.3167,159.3167,1,Vertical,-6,424,3.939,1,0,week
0eea83eef6e7e21ba9a3092a9d,8/10/2019 5:44,8/16/2019 21:03,1,159.3167,159.3167,1,Vertical,-6,425,0.844,1,0,week
0eea83eef6e7e21ba9a3092a9d,8/10/2019 5:44,8/16/2019 21:03,1,159.3167,159.3167,1,Vertical,-10,426,0.958,1,0,week
0eea83eef6e7e21ba9a3092a9d,8/10/2019 5:44,8/16/2019 21:03,1,159.3167,159.3167,1,Horizontal,8,427,0.991,1,0,week
0eea83eef6e7e21ba9a3092a9d,8/10/2019 5:44,8/16/2019 21:03,1,159.3167,159.3167,1,Horizontal,-6,428,1.093,0,0,week
0eea83eef6e7e21ba9a3092a9d,8/10/2019 5:44,8/16/2019 21:03,1,159.3167,159.3167,1,Horizontal,-6,429,1.533,0,0,week
0eea83eef6e7e21ba9a3092a9d,8/10/2019 5:44,8/16/2019 21:03,1,159.3167,159.3167,1,Vertical,0,430,1.319,1,0,week
0eea83eef6e7e21ba9a3092a9d,8/10/2019 5:44,8/16/2019 21:03,1,159.3167,159.3167,1,Vertical,6,431,0.967,1,0,week
0eea83eef6e7e21ba9a3092a9d,8/10/2019 5:44,8/16/2019 21:03,1,159.3167,159.3167,1,Vertical,10,432,2.058,1,0,week
0eea83eef6e7e21ba9a3092a9d,8/10/2019 5:44,8/16/2019 21:03,1,159.3167,159.3167,1,Horizontal,0,433,1.922,0,0,week
0eea83eef6e7e21ba9a3092a9d,8/10/2019 5:44,8/16/2019 21:03,1,159.3167,159.3167,1,Horizontal,6,434,0.909,1,0,week
0eea83eef6e7e21ba9a3092a9d,8/10/2019 5:44,8/16/2019 21:03,1,159.3167,159.3167,1,Horizontal,2,435,0.891,1,0,week
0eea83eef6e7e21ba9a3092a9d,8/10/2019 5:44,8/16/2019 21:03,1,159.3167,159.3167,1,Vertical,-8,436,0.116,1,0,week
0eea83eef6e7e21ba9a3092a9d,8/10/2019 5:44,8/16/2019 21:03,1,159.3167,159.3167,1,Vertical,-4,437,0.773,1,0,week
0eea83eef6e7e21ba9a3092a9d,8/10/2019 5:44,8/16/2019 21:03,1,159.3167,159.3167,1,Vertical,8,438,1.104,1,0,week
0eea83eef6e7e21ba9a3092a9d,8/10/2019 5:44,8/16/2019 21:03,1,159.3167,159.3167,1,Horizontal,0,439,1.253,0,0,week
0eea83eef6e7e21ba9a3092a9d,8/10/2019 5:44,8/16/2019 21:03,1,159.3167,159.3167,1,Horizontal,-10,440,0.755,0,0,week
0eea83eef6e7e21ba9a3092a9d,8/10/2019 5:44,8/16/2019 21:03,1,159.3167,159.3167,1,Horizontal,-8,441,0.7,0,0,week
0eea83eef6e7e21ba9a3092a9d,8/10/2019 5:44,8/16/2019 21:03,1,159.3167,159.3167,1,Vertical,-8,442,1.765,0,0,week
0eea83eef6e7e21ba9a3092a9d,8/10/2019 5:44,8/16/2019 21:03,1,159.3167,159.3167,1,Vertical,4,443,0.813,1,0,week
0eea83eef6e7e21ba9a3092a9d,8/10/2019 5:44,8/16/2019 21:03,1,159.3167,159.3167,1,Vertical,4,444,0.921,1,0,week
0eea83eef6e7e21ba9a3092a9d,8/10/2019 5:44,8/16/2019 21:03,1,159.3167,159.3167,1,Horizontal,0,445,2.069,1,0,week
0eea83eef6e7e21ba9a3092a9d,8/10/2019 5:44,8/16/2019 21:03,1,159.3167,159.3167,1,Horizontal,10,446,2.126,1,0,week
0eea83eef6e7e21ba9a3092a9d,8/10/2019 5:44,8/16/2019 21:03,1,159.3167,159.3167,1,Horizontal,-2,447,1.583,0,0,week
0eea83eef6e7e21ba9a3092a9d,8/10/2019 5:44,8/16/2019 21:03,1,159.3167,159.3167,1,Vertical,0,448,1.785,1,0,week
0eea83eef6e7e21ba9a3092a9d,8/10/2019 5:44,8/16/2019 21:03,1,159.3167,159.3167,1,Vertical,4,449,0.89,1,0,week
0eea83eef6e7e21ba9a3092a9d,8/10/2019 5:44,8/16/2019 21:03,1,159.3167,159.3167,1,Vertical,8,450,0.771,1,0,week
0eea83eef6e7e21ba9a3092a9d,8/10/2019 5:44,8/16/2019 21:03,1,159.3167,159.3167,1,Horizontal,6,451,3.42,1,0,week
0eea83eef6e7e21ba9a3092a9d,8/10/2019 5:44,8/16/2019 21:03,1,159.3167,159.3167,1,Horizontal,-8,452,1.835,0,0,week
0eea83eef6e7e21ba9a3092a9d,8/10/2019 5:44,8/16/2019 21:03,1,159.3167,159.3167,1,Horizontal,-10,453,1.303,0,0,week
0eea83eef6e7e21ba9a3092a9d,8/10/2019 5:44,8/16/2019 21:03,1,159.3167,159.3167,1,Vertical,0,454,0.791,1,0,week
0eea83eef6e7e21ba9a3092a9d,8/10/2019 5:44,8/16/2019 21:03,1,159.3167,159.3167,1,Vertical,10,455,0.808,1,0,week
0eea83eef6e7e21ba9a3092a9d,8/10/2019 5:44,8/16/2019 21:03,1,159.3167,159.3167,1,Vertical,4,456,0.855,1,0,week
0eea83eef6e7e21ba9a3092a9d,8/10/2019 5:44,8/16/2019 21:03,1,159.3167,159.3167,1,Horizontal,0,457,1.22,0,0,week
0eea83eef6e7e21ba9a3092a9d,8/10/2019 5:44,8/16/2019 21:03,1,159.3167,159.3167,1,Horizontal,-4,458,0.93,0,0,week
0eea83eef6e7e21ba9a3092a9d,8/10/2019 5:44,8/16/2019 21:03,1,159.3167,159.3167,1,Horizontal,10,459,2.274,1,0,week
0eea83eef6e7e21ba9a3092a9d,8/10/2019 5:44,8/16/2019 21:03,1,159.3167,159.3167,1,Vertical,2,460,1.85,1,0,week
0eea83eef6e7e21ba9a3092a9d,8/10/2019 5:44,8/16/2019 21:03,1,159.3167,159.3167,1,Vertical,-4,461,1.732,1,0,week
0eea83eef6e7e21ba9a3092a9d,8/10/2019 5:44,8/16/2019 21:03,1,159.3167,159.3167,1,Vertical,-2,462,0.763,1,0,week
0eea83eef6e7e21ba9a3092a9d,8/10/2019 5:44,8/16/2019 21:03,1,159.3167,159.3167,1,Horizontal,0,463,1.205,0,0,week
0eea83eef6e7e21ba9a3092a9d,8/10/2019 5:44,8/16/2019 21:03,1,159.3167,159.3167,1,Horizontal,10,464,0.809,1,0,week
0eea83eef6e7e21ba9a3092a9d,8/10/2019 5:44,8/16/2019 21:03,1,159.3167,159.3167,1,Horizontal,-10,465,2.086,0,0,week
0eea83eef6e7e21ba9a3092a9d,8/10/2019 5:44,8/16/2019 21:03,1,159.3167,159.3167,1,Vertical,0,466,0.931,1,0,week
0eea83eef6e7e21ba9a3092a9d,8/10/2019 5:44,8/16/2019 21:03,1,159.3167,159.3167,1,Vertical,6,467,1.539,1,0,week
0eea83eef6e7e21ba9a3092a9d,8/10/2019 5:44,8/16/2019 21:03,1,159.3167,159.3167,1,Vertical,6,468,0.75,1,0,week
0eea83eef6e7e21ba9a3092a9d,8/10/2019 5:44,8/16/2019 21:03,1,159.3167,159.3167,1,Horizontal,-10,469,0.86,0,0,week
0eea83eef6e7e21ba9a3092a9d,8/10/2019 5:44,8/16/2019 21:03,1,159.3167,159.3167,1,Horizontal,10,470,0.8,1,0,week
0eea83eef6e7e21ba9a3092a9d,8/10/2019 5:44,8/16/2019 21:03,1,159.3167,159.3167,1,Horizontal,4,471,0.818,1,0,week
0eea83eef6e7e21ba9a3092a9d,8/10/2019 5:44,8/16/2019 21:03,1,159.3167,159.3167,1,Vertical,0,472,0.626,1,0,week
0eea83eef6e7e21ba9a3092a9d,8/10/2019 5:44,8/16/2019 21:03,1,159.3167,159.3167,1,Vertical,-6,473,0.728,1,0,week
0eea83eef6e7e21ba9a3092a9d,8/10/2019 5:44,8/16/2019 21:03,1,159.3167,159.3167,1,Vertical,-2,474,0.728,1,0,week
0eea83eef6e7e21ba9a3092a9d,8/10/2019 5:44,8/16/2019 21:03,1,159.3167,159.3167,1,Horizontal,-2,475,1.188,0,0,week
0eea83eef6e7e21ba9a3092a9d,8/10/2019 5:44,8/16/2019 21:03,1,159.3167,159.3167,1,Horizontal,-4,476,2.966,0,0,week
0eea83eef6e7e21ba9a3092a9d,8/10/2019 5:44,8/16/2019 21:03,1,159.3167,159.3167,1,Horizontal,-6,477,4.852,0,0,week
0eea83eef6e7e21ba9a3092a9d,8/10/2019 5:44,8/16/2019 21:03,1,159.3167,159.3167,1,Vertical,-10,478,4.282,0,0,week
0eea83eef6e7e21ba9a3092a9d,8/10/2019 5:44,8/16/2019 21:03,1,159.3167,159.3167,1,Vertical,10,479,0.649,1,0,week
0eea83eef6e7e21ba9a3092a9d,8/10/2019 5:44,8/16/2019 21:03,1,159.3167,159.3167,1,Vertical,-10,480,1.616,1,0,week
1658ed2e894e006d49f725ad6f,8/10/2019 3:38,8/16/2019 23:54,0,164.2667,164.2667,1,Horizontal,10,1,1.402,1,1,week
1658ed2e894e006d49f725ad6f,8/10/2019 3:38,8/16/2019 23:54,0,164.2667,164.2667,1,Horizontal,-6,2,1.808,0,1,week
1658ed2e894e006d49f725ad6f,8/10/2019 3:38,8/16/2019 23:54,0,164.2667,164.2667,1,Horizontal,-10,3,1.172,0,1,week
1658ed2e894e006d49f725ad6f,8/10/2019 3:38,8/16/2019 23:54,0,164.2667,164.2667,1,Vertical,-4,4,4.795,0,1,week
1658ed2e894e006d49f725ad6f,8/10/2019 3:38,8/16/2019 23:54,0,164.2667,164.2667,1,Vertical,10,5,1.579,1,1,week
1658ed2e894e006d49f725ad6f,8/10/2019 3:38,8/16/2019 23:54,0,164.2667,164.2667,1,Vertical,-10,6,1.627,0,1,week
1658ed2e894e006d49f725ad6f,8/10/2019 3:38,8/16/2019 23:54,0,164.2667,164.2667,1,Horizontal,0,7,5.813,1,1,week
1658ed2e894e006d49f725ad6f,8/10/2019 3:38,8/16/2019 23:54,0,164.2667,164.2667,1,Horizontal,-4,8,1.557,0,1,week
1658ed2e894e006d49f725ad6f,8/10/2019 3:38,8/16/2019 23:54,0,164.2667,164.2667,1,Horizontal,-2,9,1.83,0,1,week
1658ed2e894e006d49f725ad6f,8/10/2019 3:38,8/16/2019 23:54,0,164.2667,164.2667,1,Vertical,2,10,2.281,1,1,week
1658ed2e894e006d49f725ad6f,8/10/2019 3:38,8/16/2019 23:54,0,164.2667,164.2667,1,Vertical,-4,11,0.917,0,1,week
1658ed2e894e006d49f725ad6f,8/10/2019 3:38,8/16/2019 23:54,0,164.2667,164.2667,1,Vertical,6,12,1.178,1,1,week
1658ed2e894e006d49f725ad6f,8/10/2019 3:38,8/16/2019 23:54,0,164.2667,164.2667,1,Horizontal,0,13,0.977,1,1,week
1658ed2e894e006d49f725ad6f,8/10/2019 3:38,8/16/2019 23:54,0,164.2667,164.2667,1,Horizontal,-2,14,1.289,0,1,week
1658ed2e894e006d49f725ad6f,8/10/2019 3:38,8/16/2019 23:54,0,164.2667,164.2667,1,Horizontal,10,15,0.715,1,1,week
1658ed2e894e006d49f725ad6f,8/10/2019 3:38,8/16/2019 23:54,0,164.2667,164.2667,1,Vertical,0,16,5.854,1,1,week
1658ed2e894e006d49f725ad6f,8/10/2019 3:38,8/16/2019 23:54,0,164.2667,164.2667,1,Vertical,2,17,6.187,0,1,week
1658ed2e894e006d49f725ad6f,8/10/2019 3:38,8/16/2019 23:54,0,164.2667,164.2667,1,Vertical,-10,18,0.974,0,1,week
1658ed2e894e006d49f725ad6f,8/10/2019 3:38,8/16/2019 23:54,0,164.2667,164.2667,1,Horizontal,4,19,0.696,1,1,week
1658ed2e894e006d49f725ad6f,8/10/2019 3:38,8/16/2019 23:54,0,164.2667,164.2667,1,Horizontal,-8,20,0.775,0,1,week
1658ed2e894e006d49f725ad6f,8/10/2019 3:38,8/16/2019 23:54,0,164.2667,164.2667,1,Horizontal,4,21,0.64,1,1,week
1658ed2e894e006d49f725ad6f,8/10/2019 3:38,8/16/2019 23:54,0,164.2667,164.2667,1,Vertical,6,22,1.332,1,1,week
1658ed2e894e006d49f725ad6f,8/10/2019 3:38,8/16/2019 23:54,0,164.2667,164.2667,1,Vertical,10,23,0.725,1,1,week
1658ed2e894e006d49f725ad6f,8/10/2019 3:38,8/16/2019 23:54,0,164.2667,164.2667,1,Vertical,-2,24,1.015,0,1,week
1658ed2e894e006d49f725ad6f,8/10/2019 3:38,8/16/2019 23:54,0,164.2667,164.2667,1,Horizontal,0,25,4.608,0,1,week
1658ed2e894e006d49f725ad6f,8/10/2019 3:38,8/16/2019 23:54,0,164.2667,164.2667,1,Horizontal,4,26,0.832,1,1,week
1658ed2e894e006d49f725ad6f,8/10/2019 3:38,8/16/2019 23:54,0,164.2667,164.2667,1,Horizontal,-4,27,0.676,0,1,week
1658ed2e894e006d49f725ad6f,8/10/2019 3:38,8/16/2019 23:54,0,164.2667,164.2667,1,Vertical,0,28,1.703,1,1,week
1658ed2e894e006d49f725ad6f,8/10/2019 3:38,8/16/2019 23:54,0,164.2667,164.2667,1,Vertical,-2,29,1.351,0,1,week
1658ed2e894e006d49f725ad6f,8/10/2019 3:38,8/16/2019 23:54,0,164.2667,164.2667,1,Vertical,4,30,0.734,1,1,week
1658ed2e894e006d49f725ad6f,8/10/2019 3:38,8/16/2019 23:54,0,164.2667,164.2667,1,Horizontal,-8,31,2.279,0,1,week
1658ed2e894e006d49f725ad6f,8/10/2019 3:38,8/16/2019 23:54,0,164.2667,164.2667,1,Horizontal,-8,32,0.59,0,1,week
1658ed2e894e006d49f725ad6f,8/10/2019 3:38,8/16/2019 23:54,0,164.2667,164.2667,1,Horizontal,6,33,0.569,1,1,week
1658ed2e894e006d49f725ad6f,8/10/2019 3:38,8/16/2019 23:54,0,164.2667,164.2667,1,Vertical,-10,34,0.901,0,1,week
1658ed2e894e006d49f725ad6f,8/10/2019 3:38,8/16/2019 23:54,0,164.2667,164.2667,1,Vertical,2,35,1.108,1,1,week
1658ed2e894e006d49f725ad6f,8/10/2019 3:38,8/16/2019 23:54,0,164.2667,164.2667,1,Vertical,-2,36,0.995,1,1,week
1658ed2e894e006d49f725ad6f,8/10/2019 3:38,8/16/2019 23:54,0,164.2667,164.2667,1,Horizontal,0,37,5.358,1,1,week
1658ed2e894e006d49f725ad6f,8/10/2019 3:38,8/16/2019 23:54,0,164.2667,164.2667,1,Horizontal,-4,38,0.644,0,1,week
1658ed2e894e006d49f725ad6f,8/10/2019 3:38,8/16/2019 23:54,0,164.2667,164.2667,1,Horizontal,-6,39,0.714,0,1,week
1658ed2e894e006d49f725ad6f,8/10/2019 3:38,8/16/2019 23:54,0,164.2667,164.2667,1,Vertical,0,40,1.067,1,1,week
1658ed2e894e006d49f725ad6f,8/10/2019 3:38,8/16/2019 23:54,0,164.2667,164.2667,1,Vertical,10,41,0.921,1,1,week
1658ed2e894e006d49f725ad6f,8/10/2019 3:38,8/16/2019 23:54,0,164.2667,164.2667,1,Vertical,-4,42,0.785,0,1,week
1658ed2e894e006d49f725ad6f,8/10/2019 3:38,8/16/2019 23:54,0,164.2667,164.2667,1,Horizontal,4,43,0.776,1,1,week
1658ed2e894e006d49f725ad6f,8/10/2019 3:38,8/16/2019 23:54,0,164.2667,164.2667,1,Horizontal,6,44,0.645,1,1,week
1658ed2e894e006d49f725ad6f,8/10/2019 3:38,8/16/2019 23:54,0,164.2667,164.2667,1,Horizontal,10,45,0.577,1,1,week
1658ed2e894e006d49f725ad6f,8/10/2019 3:38,8/16/2019 23:54,0,164.2667,164.2667,1,Vertical,0,46,0.707,1,1,week
1658ed2e894e006d49f725ad6f,8/10/2019 3:38,8/16/2019 23:54,0,164.2667,164.2667,1,Vertical,-8,47,0.536,0,1,week
1658ed2e894e006d49f725ad6f,8/10/2019 3:38,8/16/2019 23:54,0,164.2667,164.2667,1,Vertical,8,48,0.7,1,1,week
1658ed2e894e006d49f725ad6f,8/10/2019 3:38,8/16/2019 23:54,0,164.2667,164.2667,1,Horizontal,0,49,1.34,1,1,week
1658ed2e894e006d49f725ad6f,8/10/2019 3:38,8/16/2019 23:54,0,164.2667,164.2667,1,Horizontal,2,50,0.954,1,1,week
1658ed2e894e006d49f725ad6f,8/10/2019 3:38,8/16/2019 23:54,0,164.2667,164.2667,1,Horizontal,-2,51,0.656,0,1,week
1658ed2e894e006d49f725ad6f,8/10/2019 3:38,8/16/2019 23:54,0,164.2667,164.2667,1,Vertical,4,52,0.686,1,1,week
1658ed2e894e006d49f725ad6f,8/10/2019 3:38,8/16/2019 23:54,0,164.2667,164.2667,1,Vertical,-6,53,0.839,0,1,week
1658ed2e894e006d49f725ad6f,8/10/2019 3:38,8/16/2019 23:54,0,164.2667,164.2667,1,Vertical,4,54,1.023,1,1,week
1658ed2e894e006d49f725ad6f,8/10/2019 3:38,8/16/2019 23:54,0,164.2667,164.2667,1,Horizontal,-2,55,1.198,0,1,week
1658ed2e894e006d49f725ad6f,8/10/2019 3:38,8/16/2019 23:54,0,164.2667,164.2667,1,Horizontal,-8,56,0.557,0,1,week
1658ed2e894e006d49f725ad6f,8/10/2019 3:38,8/16/2019 23:54,0,164.2667,164.2667,1,Horizontal,2,57,1.138,1,1,week
1658ed2e894e006d49f725ad6f,8/10/2019 3:38,8/16/2019 23:54,0,164.2667,164.2667,1,Vertical,0,58,1.61,1,1,week
1658ed2e894e006d49f725ad6f,8/10/2019 3:38,8/16/2019 23:54,0,164.2667,164.2667,1,Vertical,4,59,0.737,1,1,week
1658ed2e894e006d49f725ad6f,8/10/2019 3:38,8/16/2019 23:54,0,164.2667,164.2667,1,Vertical,6,60,0.87,1,1,week
1658ed2e894e006d49f725ad6f,8/10/2019 3:38,8/16/2019 23:54,0,164.2667,164.2667,1,Horizontal,0,61,1.754,0,1,week
1658ed2e894e006d49f725ad6f,8/10/2019 3:38,8/16/2019 23:54,0,164.2667,164.2667,1,Horizontal,6,62,0.66,1,1,week
1658ed2e894e006d49f725ad6f,8/10/2019 3:38,8/16/2019 23:54,0,164.2667,164.2667,1,Horizontal,8,63,0.736,1,1,week
1658ed2e894e006d49f725ad6f,8/10/2019 3:38,8/16/2019 23:54,0,164.2667,164.2667,1,Vertical,0,64,0.66,1,1,week
1658ed2e894e006d49f725ad6f,8/10/2019 3:38,8/16/2019 23:54,0,164.2667,164.2667,1,Vertical,8,65,0.673,1,1,week
1658ed2e894e006d49f725ad6f,8/10/2019 3:38,8/16/2019 23:54,0,164.2667,164.2667,1,Vertical,8,66,0.631,1,1,week
1658ed2e894e006d49f725ad6f,8/10/2019 3:38,8/16/2019 23:54,0,164.2667,164.2667,1,Horizontal,0,67,1.101,1,1,week
1658ed2e894e006d49f725ad6f,8/10/2019 3:38,8/16/2019 23:54,0,164.2667,164.2667,1,Horizontal,-10,68,0.554,0,1,week
1658ed2e894e006d49f725ad6f,8/10/2019 3:38,8/16/2019 23:54,0,164.2667,164.2667,1,Horizontal,10,69,0.577,1,1,week
1658ed2e894e006d49f725ad6f,8/10/2019 3:38,8/16/2019 23:54,0,164.2667,164.2667,1,Vertical,-6,70,0.825,0,1,week
1658ed2e894e006d49f725ad6f,8/10/2019 3:38,8/16/2019 23:54,0,164.2667,164.2667,1,Vertical,-8,71,0.666,0,1,week
1658ed2e894e006d49f725ad6f,8/10/2019 3:38,8/16/2019 23:54,0,164.2667,164.2667,1,Vertical,-2,72,4.946,1,1,week
1658ed2e894e006d49f725ad6f,8/10/2019 3:38,8/16/2019 23:54,0,164.2667,164.2667,1,Horizontal,8,73,0.613,1,1,week
1658ed2e894e006d49f725ad6f,8/10/2019 3:38,8/16/2019 23:54,0,164.2667,164.2667,1,Horizontal,-8,74,0.539,0,1,week
1658ed2e894e006d49f725ad6f,8/10/2019 3:38,8/16/2019 23:54,0,164.2667,164.2667,1,Horizontal,-2,75,0.762,0,1,week
1658ed2e894e006d49f725ad6f,8/10/2019 3:38,8/16/2019 23:54,0,164.2667,164.2667,1,Vertical,0,76,0.487,0,1,week
1658ed2e894e006d49f725ad6f,8/10/2019 3:38,8/16/2019 23:54,0,164.2667,164.2667,1,Vertical,8,77,0.688,1,1,week
1658ed2e894e006d49f725ad6f,8/10/2019 3:38,8/16/2019 23:54,0,164.2667,164.2667,1,Vertical,-8,78,0.656,0,1,week
1658ed2e894e006d49f725ad6f,8/10/2019 3:38,8/16/2019 23:54,0,164.2667,164.2667,1,Horizontal,-6,79,1.405,0,1,week
1658ed2e894e006d49f725ad6f,8/10/2019 3:38,8/16/2019 23:54,0,164.2667,164.2667,1,Horizontal,2,80,1.644,1,1,week
1658ed2e894e006d49f725ad6f,8/10/2019 3:38,8/16/2019 23:54,0,164.2667,164.2667,1,Horizontal,6,81,0.555,1,1,week
1658ed2e894e006d49f725ad6f,8/10/2019 3:38,8/16/2019 23:54,0,164.2667,164.2667,1,Vertical,-10,82,0.85,0,1,week
1658ed2e894e006d49f725ad6f,8/10/2019 3:38,8/16/2019 23:54,0,164.2667,164.2667,1,Vertical,2,83,0.644,1,1,week
1658ed2e894e006d49f725ad6f,8/10/2019 3:38,8/16/2019 23:54,0,164.2667,164.2667,1,Vertical,2,84,0.683,1,1,week
1658ed2e894e006d49f725ad6f,8/10/2019 3:38,8/16/2019 23:54,0,164.2667,164.2667,1,Horizontal,0,85,0.747,0,1,week
1658ed2e894e006d49f725ad6f,8/10/2019 3:38,8/16/2019 23:54,0,164.2667,164.2667,1,Horizontal,8,86,1.302,1,1,week
1658ed2e894e006d49f725ad6f,8/10/2019 3:38,8/16/2019 23:54,0,164.2667,164.2667,1,Horizontal,-4,87,0.603,0,1,week
1658ed2e894e006d49f725ad6f,8/10/2019 3:38,8/16/2019 23:54,0,164.2667,164.2667,1,Vertical,0,88,0.735,0,1,week
1658ed2e894e006d49f725ad6f,8/10/2019 3:38,8/16/2019 23:54,0,164.2667,164.2667,1,Vertical,6,89,0.999,1,1,week
1658ed2e894e006d49f725ad6f,8/10/2019 3:38,8/16/2019 23:54,0,164.2667,164.2667,1,Vertical,6,90,1.103,1,1,week
1658ed2e894e006d49f725ad6f,8/10/2019 3:38,8/16/2019 23:54,0,164.2667,164.2667,1,Horizontal,0,91,2.74,1,1,week
1658ed2e894e006d49f725ad6f,8/10/2019 3:38,8/16/2019 23:54,0,164.2667,164.2667,1,Horizontal,-6,92,0.676,0,1,week
1658ed2e894e006d49f725ad6f,8/10/2019 3:38,8/16/2019 23:54,0,164.2667,164.2667,1,Horizontal,8,93,0.528,1,1,week
1658ed2e894e006d49f725ad6f,8/10/2019 3:38,8/16/2019 23:54,0,164.2667,164.2667,1,Vertical,-6,94,0.987,0,1,week
1658ed2e894e006d49f725ad6f,8/10/2019 3:38,8/16/2019 23:54,0,164.2667,164.2667,1,Vertical,-10,95,0.569,0,1,week
1658ed2e894e006d49f725ad6f,8/10/2019 3:38,8/16/2019 23:54,0,164.2667,164.2667,1,Vertical,-8,96,0.567,0,1,week
1658ed2e894e006d49f725ad6f,8/10/2019 3:38,8/16/2019 23:54,0,164.2667,164.2667,1,Horizontal,-4,97,0.521,0,1,week
1658ed2e894e006d49f725ad6f,8/10/2019 3:38,8/16/2019 23:54,0,164.2667,164.2667,1,Horizontal,-10,98,0.504,0,1,week
1658ed2e894e006d49f725ad6f,8/10/2019 3:38,8/16/2019 23:54,0,164.2667,164.2667,1,Horizontal,2,99,1.249,1,1,week
1658ed2e894e006d49f725ad6f,8/10/2019 3:38,8/16/2019 23:54,0,164.2667,164.2667,1,Vertical,0,100,1.791,1,1,week
1658ed2e894e006d49f725ad6f,8/10/2019 3:38,8/16/2019 23:54,0,164.2667,164.2667,1,Vertical,-4,101,0.668,0,1,week
1658ed2e894e006d49f725ad6f,8/10/2019 3:38,8/16/2019 23:54,0,164.2667,164.2667,1,Vertical,-4,102,0.892,0,1,week
1658ed2e894e006d49f725ad6f,8/10/2019 3:38,8/16/2019 23:54,0,164.2667,164.2667,1,Horizontal,4,103,0.6,1,1,week
1658ed2e894e006d49f725ad6f,8/10/2019 3:38,8/16/2019 23:54,0,164.2667,164.2667,1,Horizontal,-6,104,0.611,0,1,week
1658ed2e894e006d49f725ad6f,8/10/2019 3:38,8/16/2019 23:54,0,164.2667,164.2667,1,Horizontal,-10,105,0.483,0,1,week
1658ed2e894e006d49f725ad6f,8/10/2019 3:38,8/16/2019 23:54,0,164.2667,164.2667,1,Vertical,-6,106,0.822,0,1,week
1658ed2e894e006d49f725ad6f,8/10/2019 3:38,8/16/2019 23:54,0,164.2667,164.2667,1,Vertical,8,107,0.692,1,1,week
1658ed2e894e006d49f725ad6f,8/10/2019 3:38,8/16/2019 23:54,0,164.2667,164.2667,1,Vertical,4,108,0.803,1,1,week
1658ed2e894e006d49f725ad6f,8/10/2019 3:38,8/16/2019 23:54,0,164.2667,164.2667,1,Horizontal,2,109,0.745,1,1,week
1658ed2e894e006d49f725ad6f,8/10/2019 3:38,8/16/2019 23:54,0,164.2667,164.2667,1,Horizontal,8,110,0.719,1,1,week
1658ed2e894e006d49f725ad6f,8/10/2019 3:38,8/16/2019 23:54,0,164.2667,164.2667,1,Horizontal,-10,111,0.611,0,1,week
1658ed2e894e006d49f725ad6f,8/10/2019 3:38,8/16/2019 23:54,0,164.2667,164.2667,1,Vertical,-8,112,0.876,0,1,week
1658ed2e894e006d49f725ad6f,8/10/2019 3:38,8/16/2019 23:54,0,164.2667,164.2667,1,Vertical,-2,113,0.947,0,1,week
1658ed2e894e006d49f725ad6f,8/10/2019 3:38,8/16/2019 23:54,0,164.2667,164.2667,1,Vertical,-6,114,0.623,0,1,week
1658ed2e894e006d49f725ad6f,8/10/2019 3:38,8/16/2019 23:54,0,164.2667,164.2667,1,Horizontal,0,115,1.332,1,1,week
1658ed2e894e006d49f725ad6f,8/10/2019 3:38,8/16/2019 23:54,0,164.2667,164.2667,1,Horizontal,10,116,0.524,1,1,week
1658ed2e894e006d49f725ad6f,8/10/2019 3:38,8/16/2019 23:54,0,164.2667,164.2667,1,Horizontal,6,117,0.528,1,1,week
1658ed2e894e006d49f725ad6f,8/10/2019 3:38,8/16/2019 23:54,0,164.2667,164.2667,1,Vertical,0,118,1.082,1,1,week
1658ed2e894e006d49f725ad6f,8/10/2019 3:38,8/16/2019 23:54,0,164.2667,164.2667,1,Vertical,10,119,0.667,1,1,week
1658ed2e894e006d49f725ad6f,8/10/2019 3:38,8/16/2019 23:54,0,164.2667,164.2667,1,Vertical,10,120,0.623,1,1,week
1658ed2e894e006d49f725ad6f,8/10/2019 3:38,8/16/2019 23:54,0,164.2667,164.2667,1,Horizontal,6,121,1.749,1,1,week
1658ed2e894e006d49f725ad6f,8/10/2019 3:38,8/16/2019 23:54,0,164.2667,164.2667,1,Horizontal,-2,122,0.698,0,1,week
1658ed2e894e006d49f725ad6f,8/10/2019 3:38,8/16/2019 23:54,0,164.2667,164.2667,1,Horizontal,4,123,0.587,1,1,week
1658ed2e894e006d49f725ad6f,8/10/2019 3:38,8/16/2019 23:54,0,164.2667,164.2667,1,Vertical,0,124,1.243,0,1,week
1658ed2e894e006d49f725ad6f,8/10/2019 3:38,8/16/2019 23:54,0,164.2667,164.2667,1,Vertical,6,125,0.606,1,1,week
1658ed2e894e006d49f725ad6f,8/10/2019 3:38,8/16/2019 23:54,0,164.2667,164.2667,1,Vertical,-6,126,0.555,0,1,week
1658ed2e894e006d49f725ad6f,8/10/2019 3:38,8/16/2019 23:54,0,164.2667,164.2667,1,Horizontal,0,127,1.576,0,1,week
1658ed2e894e006d49f725ad6f,8/10/2019 3:38,8/16/2019 23:54,0,164.2667,164.2667,1,Horizontal,6,128,0.625,1,1,week
1658ed2e894e006d49f725ad6f,8/10/2019 3:38,8/16/2019 23:54,0,164.2667,164.2667,1,Horizontal,6,129,0.559,1,1,week
1658ed2e894e006d49f725ad6f,8/10/2019 3:38,8/16/2019 23:54,0,164.2667,164.2667,1,Vertical,-2,130,2.231,1,1,week
1658ed2e894e006d49f725ad6f,8/10/2019 3:38,8/16/2019 23:54,0,164.2667,164.2667,1,Vertical,6,131,0.714,1,1,week
1658ed2e894e006d49f725ad6f,8/10/2019 3:38,8/16/2019 23:54,0,164.2667,164.2667,1,Vertical,4,132,0.917,1,1,week
1658ed2e894e006d49f725ad6f,8/10/2019 3:38,8/16/2019 23:54,0,164.2667,164.2667,1,Horizontal,0,133,1.124,0,1,week
1658ed2e894e006d49f725ad6f,8/10/2019 3:38,8/16/2019 23:54,0,164.2667,164.2667,1,Horizontal,-2,134,0.604,0,1,week
1658ed2e894e006d49f725ad6f,8/10/2019 3:38,8/16/2019 23:54,0,164.2667,164.2667,1,Horizontal,-4,135,0.498,0,1,week
1658ed2e894e006d49f725ad6f,8/10/2019 3:38,8/16/2019 23:54,0,164.2667,164.2667,1,Vertical,0,136,0.817,0,1,week
1658ed2e894e006d49f725ad6f,8/10/2019 3:38,8/16/2019 23:54,0,164.2667,164.2667,1,Vertical,2,137,0.53,1,1,week
1658ed2e894e006d49f725ad6f,8/10/2019 3:38,8/16/2019 23:54,0,164.2667,164.2667,1,Vertical,10,138,0.631,1,1,week
1658ed2e894e006d49f725ad6f,8/10/2019 3:38,8/16/2019 23:54,0,164.2667,164.2667,1,Horizontal,-6,139,0.564,0,1,week
1658ed2e894e006d49f725ad6f,8/10/2019 3:38,8/16/2019 23:54,0,164.2667,164.2667,1,Horizontal,8,140,0.553,1,1,week
1658ed2e894e006d49f725ad6f,8/10/2019 3:38,8/16/2019 23:54,0,164.2667,164.2667,1,Horizontal,4,141,0.762,1,1,week
1658ed2e894e006d49f725ad6f,8/10/2019 3:38,8/16/2019 23:54,0,164.2667,164.2667,1,Vertical,0,142,0.678,0,1,week
1658ed2e894e006d49f725ad6f,8/10/2019 3:38,8/16/2019 23:54,0,164.2667,164.2667,1,Vertical,-4,143,0.841,0,1,week
1658ed2e894e006d49f725ad6f,8/10/2019 3:38,8/16/2019 23:54,0,164.2667,164.2667,1,Vertical,2,144,0.823,1,1,week
1658ed2e894e006d49f725ad6f,8/10/2019 3:38,8/16/2019 23:54,0,164.2667,164.2667,1,Horizontal,0,145,2.391,1,1,week
1658ed2e894e006d49f725ad6f,8/10/2019 3:38,8/16/2019 23:54,0,164.2667,164.2667,1,Horizontal,2,146,1.037,1,1,week
1658ed2e894e006d49f725ad6f,8/10/2019 3:38,8/16/2019 23:54,0,164.2667,164.2667,1,Horizontal,2,147,0.941,1,1,week
1658ed2e894e006d49f725ad6f,8/10/2019 3:38,8/16/2019 23:54,0,164.2667,164.2667,1,Vertical,-8,148,0.727,0,1,week
1658ed2e894e006d49f725ad6f,8/10/2019 3:38,8/16/2019 23:54,0,164.2667,164.2667,1,Vertical,-10,149,0.563,0,1,week
1658ed2e894e006d49f725ad6f,8/10/2019 3:38,8/16/2019 23:54,0,164.2667,164.2667,1,Vertical,-2,150,1.097,1,1,week
1658ed2e894e006d49f725ad6f,8/10/2019 3:38,8/16/2019 23:54,0,164.2667,164.2667,1,Horizontal,-4,151,1.822,0,1,week
1658ed2e894e006d49f725ad6f,8/10/2019 3:38,8/16/2019 23:54,0,164.2667,164.2667,1,Horizontal,-10,152,0.496,0,1,week
1658ed2e894e006d49f725ad6f,8/10/2019 3:38,8/16/2019 23:54,0,164.2667,164.2667,1,Horizontal,2,153,0.884,1,1,week
1658ed2e894e006d49f725ad6f,8/10/2019 3:38,8/16/2019 23:54,0,164.2667,164.2667,1,Vertical,0,154,4.008,1,1,week
1658ed2e894e006d49f725ad6f,8/10/2019 3:38,8/16/2019 23:54,0,164.2667,164.2667,1,Vertical,-8,155,0.859,0,1,week
1658ed2e894e006d49f725ad6f,8/10/2019 3:38,8/16/2019 23:54,0,164.2667,164.2667,1,Vertical,2,156,1.299,1,1,week
1658ed2e894e006d49f725ad6f,8/10/2019 3:38,8/16/2019 23:54,0,164.2667,164.2667,1,Horizontal,0,157,5.21,1,1,week
1658ed2e894e006d49f725ad6f,8/10/2019 3:38,8/16/2019 23:54,0,164.2667,164.2667,1,Horizontal,4,158,0.541,1,1,week
1658ed2e894e006d49f725ad6f,8/10/2019 3:38,8/16/2019 23:54,0,164.2667,164.2667,1,Horizontal,-2,159,0.978,0,1,week
1658ed2e894e006d49f725ad6f,8/10/2019 3:38,8/16/2019 23:54,0,164.2667,164.2667,1,Vertical,8,160,0.831,1,1,week
1658ed2e894e006d49f725ad6f,8/10/2019 3:38,8/16/2019 23:54,0,164.2667,164.2667,1,Vertical,-6,161,0.712,0,1,week
1658ed2e894e006d49f725ad6f,8/10/2019 3:38,8/16/2019 23:54,0,164.2667,164.2667,1,Vertical,-4,162,0.845,0,1,week
1658ed2e894e006d49f725ad6f,8/10/2019 3:38,8/16/2019 23:54,0,164.2667,164.2667,1,Horizontal,2,163,2.673,1,1,week
1658ed2e894e006d49f725ad6f,8/10/2019 3:38,8/16/2019 23:54,0,164.2667,164.2667,1,Horizontal,8,164,0.532,1,1,week
1658ed2e894e006d49f725ad6f,8/10/2019 3:38,8/16/2019 23:54,0,164.2667,164.2667,1,Horizontal,-8,165,0.522,0,1,week
1658ed2e894e006d49f725ad6f,8/10/2019 3:38,8/16/2019 23:54,0,164.2667,164.2667,1,Vertical,-10,166,0.844,0,1,week
1658ed2e894e006d49f725ad6f,8/10/2019 3:38,8/16/2019 23:54,0,164.2667,164.2667,1,Vertical,10,167,0.553,1,1,week
1658ed2e894e006d49f725ad6f,8/10/2019 3:38,8/16/2019 23:54,0,164.2667,164.2667,1,Vertical,-4,168,0.536,0,1,week
1658ed2e894e006d49f725ad6f,8/10/2019 3:38,8/16/2019 23:54,0,164.2667,164.2667,1,Horizontal,8,169,0.515,1,1,week
1658ed2e894e006d49f725ad6f,8/10/2019 3:38,8/16/2019 23:54,0,164.2667,164.2667,1,Horizontal,8,170,0.672,1,1,week
1658ed2e894e006d49f725ad6f,8/10/2019 3:38,8/16/2019 23:54,0,164.2667,164.2667,1,Horizontal,-8,171,0.604,0,1,week
1658ed2e894e006d49f725ad6f,8/10/2019 3:38,8/16/2019 23:54,0,164.2667,164.2667,1,Vertical,0,172,0.789,1,1,week
1658ed2e894e006d49f725ad6f,8/10/2019 3:38,8/16/2019 23:54,0,164.2667,164.2667,1,Vertical,8,173,0.602,1,1,week
1658ed2e894e006d49f725ad6f,8/10/2019 3:38,8/16/2019 23:54,0,164.2667,164.2667,1,Vertical,-2,174,0.605,0,1,week
1658ed2e894e006d49f725ad6f,8/10/2019 3:38,8/16/2019 23:54,0,164.2667,164.2667,1,Horizontal,0,175,1.379,0,1,week
1658ed2e894e006d49f725ad6f,8/10/2019 3:38,8/16/2019 23:54,0,164.2667,164.2667,1,Horizontal,-8,176,1.621,0,1,week
1658ed2e894e006d49f725ad6f,8/10/2019 3:38,8/16/2019 23:54,0,164.2667,164.2667,1,Horizontal,-4,177,5.658,0,1,week
1658ed2e894e006d49f725ad6f,8/10/2019 3:38,8/16/2019 23:54,0,164.2667,164.2667,1,Vertical,8,178,0.788,1,1,week
1658ed2e894e006d49f725ad6f,8/10/2019 3:38,8/16/2019 23:54,0,164.2667,164.2667,1,Vertical,-8,179,0.594,0,1,week
1658ed2e894e006d49f725ad6f,8/10/2019 3:38,8/16/2019 23:54,0,164.2667,164.2667,1,Vertical,2,180,0.776,1,1,week
1658ed2e894e006d49f725ad6f,8/10/2019 3:38,8/16/2019 23:54,0,164.2667,164.2667,1,Horizontal,10,181,0.66,1,1,week
1658ed2e894e006d49f725ad6f,8/10/2019 3:38,8/16/2019 23:54,0,164.2667,164.2667,1,Horizontal,-6,182,0.476,0,1,week
1658ed2e894e006d49f725ad6f,8/10/2019 3:38,8/16/2019 23:54,0,164.2667,164.2667,1,Horizontal,4,183,0.458,1,1,week
1658ed2e894e006d49f725ad6f,8/10/2019 3:38,8/16/2019 23:54,0,164.2667,164.2667,1,Vertical,-6,184,0.717,0,1,week
1658ed2e894e006d49f725ad6f,8/10/2019 3:38,8/16/2019 23:54,0,164.2667,164.2667,1,Vertical,-6,185,0.519,0,1,week
1658ed2e894e006d49f725ad6f,8/10/2019 3:38,8/16/2019 23:54,0,164.2667,164.2667,1,Vertical,-10,186,0.454,0,1,week
1658ed2e894e006d49f725ad6f,8/10/2019 3:38,8/16/2019 23:54,0,164.2667,164.2667,1,Horizontal,8,187,0.506,1,1,week
1658ed2e894e006d49f725ad6f,8/10/2019 3:38,8/16/2019 23:54,0,164.2667,164.2667,1,Horizontal,-6,188,0.456,0,1,week
1658ed2e894e006d49f725ad6f,8/10/2019 3:38,8/16/2019 23:54,0,164.2667,164.2667,1,Horizontal,-6,189,0.456,0,1,week
1658ed2e894e006d49f725ad6f,8/10/2019 3:38,8/16/2019 23:54,0,164.2667,164.2667,1,Vertical,0,190,0.752,1,1,week
1658ed2e894e006d49f725ad6f,8/10/2019 3:38,8/16/2019 23:54,0,164.2667,164.2667,1,Vertical,6,191,0.62,1,1,week
1658ed2e894e006d49f725ad6f,8/10/2019 3:38,8/16/2019 23:54,0,164.2667,164.2667,1,Vertical,10,192,0.571,1,1,week
1658ed2e894e006d49f725ad6f,8/10/2019 3:38,8/16/2019 23:54,0,164.2667,164.2667,1,Horizontal,0,193,1.357,1,1,week
1658ed2e894e006d49f725ad6f,8/10/2019 3:38,8/16/2019 23:54,0,164.2667,164.2667,1,Horizontal,6,194,0.497,1,1,week
1658ed2e894e006d49f725ad6f,8/10/2019 3:38,8/16/2019 23:54,0,164.2667,164.2667,1,Horizontal,2,195,0.595,1,1,week
1658ed2e894e006d49f725ad6f,8/10/2019 3:38,8/16/2019 23:54,0,164.2667,164.2667,1,Vertical,-8,196,0.564,0,1,week
1658ed2e894e006d49f725ad6f,8/10/2019 3:38,8/16/2019 23:54,0,164.2667,164.2667,1,Vertical,-4,197,0.53,0,1,week
1658ed2e894e006d49f725ad6f,8/10/2019 3:38,8/16/2019 23:54,0,164.2667,164.2667,1,Vertical,8,198,0.698,1,1,week
1658ed2e894e006d49f725ad6f,8/10/2019 3:38,8/16/2019 23:54,0,164.2667,164.2667,1,Horizontal,0,199,1.234,1,1,week
1658ed2e894e006d49f725ad6f,8/10/2019 3:38,8/16/2019 23:54,0,164.2667,164.2667,1,Horizontal,-10,200,0.704,0,1,week
1658ed2e894e006d49f725ad6f,8/10/2019 3:38,8/16/2019 23:54,0,164.2667,164.2667,1,Horizontal,-8,201,0.55,0,1,week
1658ed2e894e006d49f725ad6f,8/10/2019 3:38,8/16/2019 23:54,0,164.2667,164.2667,1,Vertical,-8,202,0.593,0,1,week
1658ed2e894e006d49f725ad6f,8/10/2019 3:38,8/16/2019 23:54,0,164.2667,164.2667,1,Vertical,4,203,0.757,1,1,week
1658ed2e894e006d49f725ad6f,8/10/2019 3:38,8/16/2019 23:54,0,164.2667,164.2667,1,Vertical,4,204,0.695,1,1,week
1658ed2e894e006d49f725ad6f,8/10/2019 3:38,8/16/2019 23:54,0,164.2667,164.2667,1,Horizontal,0,205,1.524,1,1,week
1658ed2e894e006d49f725ad6f,8/10/2019 3:38,8/16/2019 23:54,0,164.2667,164.2667,1,Horizontal,10,206,0.896,1,1,week
1658ed2e894e006d49f725ad6f,8/10/2019 3:38,8/16/2019 23:54,0,164.2667,164.2667,1,Horizontal,-2,207,0.95,0,1,week
1658ed2e894e006d49f725ad6f,8/10/2019 3:38,8/16/2019 23:54,0,164.2667,164.2667,1,Vertical,0,208,0.534,0,1,week
1658ed2e894e006d49f725ad6f,8/10/2019 3:38,8/16/2019 23:54,0,164.2667,164.2667,1,Vertical,4,209,0.601,1,1,week
1658ed2e894e006d49f725ad6f,8/10/2019 3:38,8/16/2019 23:54,0,164.2667,164.2667,1,Vertical,8,210,0.521,1,1,week
1658ed2e894e006d49f725ad6f,8/10/2019 3:38,8/16/2019 23:54,0,164.2667,164.2667,1,Horizontal,6,211,1.08,1,1,week
1658ed2e894e006d49f725ad6f,8/10/2019 3:38,8/16/2019 23:54,0,164.2667,164.2667,1,Horizontal,-8,212,0.489,0,1,week
1658ed2e894e006d49f725ad6f,8/10/2019 3:38,8/16/2019 23:54,0,164.2667,164.2667,1,Horizontal,-10,213,0.39,0,1,week
1658ed2e894e006d49f725ad6f,8/10/2019 3:38,8/16/2019 23:54,0,164.2667,164.2667,1,Vertical,0,214,1.263,0,1,week
1658ed2e894e006d49f725ad6f,8/10/2019 3:38,8/16/2019 23:54,0,164.2667,164.2667,1,Vertical,10,215,0.471,1,1,week
1658ed2e894e006d49f725ad6f,8/10/2019 3:38,8/16/2019 23:54,0,164.2667,164.2667,1,Vertical,4,216,1.007,1,1,week
1658ed2e894e006d49f725ad6f,8/10/2019 3:38,8/16/2019 23:54,0,164.2667,164.2667,1,Horizontal,0,217,1.522,1,1,week
1658ed2e894e006d49f725ad6f,8/10/2019 3:38,8/16/2019 23:54,0,164.2667,164.2667,1,Horizontal,-4,218,0.949,0,1,week
1658ed2e894e006d49f725ad6f,8/10/2019 3:38,8/16/2019 23:54,0,164.2667,164.2667,1,Horizontal,10,219,0.584,1,1,week
1658ed2e894e006d49f725ad6f,8/10/2019 3:38,8/16/2019 23:54,0,164.2667,164.2667,1,Vertical,2,220,1.588,1,1,week
1658ed2e894e006d49f725ad6f,8/10/2019 3:38,8/16/2019 23:54,0,164.2667,164.2667,1,Vertical,-4,221,0.601,0,1,week
1658ed2e894e006d49f725ad6f,8/10/2019 3:38,8/16/2019 23:54,0,164.2667,164.2667,1,Vertical,-2,222,0.953,0,1,week
1658ed2e894e006d49f725ad6f,8/10/2019 3:38,8/16/2019 23:54,0,164.2667,164.2667,1,Horizontal,0,223,1.413,1,1,week
1658ed2e894e006d49f725ad6f,8/10/2019 3:38,8/16/2019 23:54,0,164.2667,164.2667,1,Horizontal,10,224,0.514,1,1,week
1658ed2e894e006d49f725ad6f,8/10/2019 3:38,8/16/2019 23:54,0,164.2667,164.2667,1,Horizontal,-10,225,0.559,0,1,week
1658ed2e894e006d49f725ad6f,8/10/2019 3:38,8/16/2019 23:54,0,164.2667,164.2667,1,Vertical,0,226,0.897,1,1,week
1658ed2e894e006d49f725ad6f,8/10/2019 3:38,8/16/2019 23:54,0,164.2667,164.2667,1,Vertical,6,227,0.797,1,1,week
1658ed2e894e006d49f725ad6f,8/10/2019 3:38,8/16/2019 23:54,0,164.2667,164.2667,1,Vertical,6,228,0.878,1,1,week
1658ed2e894e006d49f725ad6f,8/10/2019 3:38,8/16/2019 23:54,0,164.2667,164.2667,1,Horizontal,-10,229,0.512,0,1,week
1658ed2e894e006d49f725ad6f,8/10/2019 3:38,8/16/2019 23:54,0,164.2667,164.2667,1,Horizontal,10,230,0.546,1,1,week
1658ed2e894e006d49f725ad6f,8/10/2019 3:38,8/16/2019 23:54,0,164.2667,164.2667,1,Horizontal,4,231,1.437,1,1,week
1658ed2e894e006d49f725ad6f,8/10/2019 3:38,8/16/2019 23:54,0,164.2667,164.2667,1,Vertical,0,232,0.649,0,1,week
1658ed2e894e006d49f725ad6f,8/10/2019 3:38,8/16/2019 23:54,0,164.2667,164.2667,1,Vertical,-6,233,0.659,0,1,week
1658ed2e894e006d49f725ad6f,8/10/2019 3:38,8/16/2019 23:54,0,164.2667,164.2667,1,Vertical,-2,234,0.905,0,1,week
1658ed2e894e006d49f725ad6f,8/10/2019 3:38,8/16/2019 23:54,0,164.2667,164.2667,1,Horizontal,-2,235,1.168,0,1,week
1658ed2e894e006d49f725ad6f,8/10/2019 3:38,8/16/2019 23:54,0,164.2667,164.2667,1,Horizontal,-4,236,0.716,0,1,week
1658ed2e894e006d49f725ad6f,8/10/2019 3:38,8/16/2019 23:54,0,164.2667,164.2667,1,Horizontal,-6,237,0.603,0,1,week
1658ed2e894e006d49f725ad6f,8/10/2019 3:38,8/16/2019 23:54,0,164.2667,164.2667,1,Vertical,-10,238,0.582,0,1,week
1658ed2e894e006d49f725ad6f,8/10/2019 3:38,8/16/2019 23:54,0,164.2667,164.2667,1,Vertical,10,239,0.631,1,1,week
1658ed2e894e006d49f725ad6f,8/10/2019 3:38,8/16/2019 23:54,0,164.2667,164.2667,1,Vertical,-10,240,0.587,0,1,week
1658ed2e894e006d49f725ad6f,8/10/2019 3:38,8/16/2019 23:54,0,164.2667,164.2667,1,Horizontal,10,241,1.699,1,1,week
1658ed2e894e006d49f725ad6f,8/10/2019 3:38,8/16/2019 23:54,0,164.2667,164.2667,1,Horizontal,-6,242,0.587,0,1,week
1658ed2e894e006d49f725ad6f,8/10/2019 3:38,8/16/2019 23:54,0,164.2667,164.2667,1,Horizontal,-10,243,0.428,0,1,week
1658ed2e894e006d49f725ad6f,8/10/2019 3:38,8/16/2019 23:54,0,164.2667,164.2667,1,Vertical,-4,244,0.9,0,1,week
1658ed2e894e006d49f725ad6f,8/10/2019 3:38,8/16/2019 23:54,0,164.2667,164.2667,1,Vertical,10,245,0.675,1,1,week
1658ed2e894e006d49f725ad6f,8/10/2019 3:38,8/16/2019 23:54,0,164.2667,164.2667,1,Vertical,-10,246,0.624,0,1,week
1658ed2e894e006d49f725ad6f,8/10/2019 3:38,8/16/2019 23:54,0,164.2667,164.2667,1,Horizontal,0,247,1.337,1,1,week
1658ed2e894e006d49f725ad6f,8/10/2019 3:38,8/16/2019 23:54,0,164.2667,164.2667,1,Horizontal,-4,248,0.599,0,1,week
1658ed2e894e006d49f725ad6f,8/10/2019 3:38,8/16/2019 23:54,0,164.2667,164.2667,1,Horizontal,-2,249,0.757,0,1,week
1658ed2e894e006d49f725ad6f,8/10/2019 3:38,8/16/2019 23:54,0,164.2667,164.2667,1,Vertical,2,250,0.883,1,1,week
1658ed2e894e006d49f725ad6f,8/10/2019 3:38,8/16/2019 23:54,0,164.2667,164.2667,1,Vertical,-4,251,0.625,0,1,week
1658ed2e894e006d49f725ad6f,8/10/2019 3:38,8/16/2019 23:54,0,164.2667,164.2667,1,Vertical,6,252,0.827,1,1,week
1658ed2e894e006d49f725ad6f,8/10/2019 3:38,8/16/2019 23:54,0,164.2667,164.2667,1,Horizontal,0,253,0.966,1,1,week
1658ed2e894e006d49f725ad6f,8/10/2019 3:38,8/16/2019 23:54,0,164.2667,164.2667,1,Horizontal,-2,254,0.984,0,1,week
1658ed2e894e006d49f725ad6f,8/10/2019 3:38,8/16/2019 23:54,0,164.2667,164.2667,1,Horizontal,10,255,0.574,1,1,week
1658ed2e894e006d49f725ad6f,8/10/2019 3:38,8/16/2019 23:54,0,164.2667,164.2667,1,Vertical,0,256,0.694,0,1,week
1658ed2e894e006d49f725ad6f,8/10/2019 3:38,8/16/2019 23:54,0,164.2667,164.2667,1,Vertical,2,257,0.979,1,1,week
1658ed2e894e006d49f725ad6f,8/10/2019 3:38,8/16/2019 23:54,0,164.2667,164.2667,1,Vertical,-10,258,0.594,0,1,week
1658ed2e894e006d49f725ad6f,8/10/2019 3:38,8/16/2019 23:54,0,164.2667,164.2667,1,Horizontal,4,259,0.641,1,1,week
1658ed2e894e006d49f725ad6f,8/10/2019 3:38,8/16/2019 23:54,0,164.2667,164.2667,1,Horizontal,-8,260,0.81,0,1,week
1658ed2e894e006d49f725ad6f,8/10/2019 3:38,8/16/2019 23:54,0,164.2667,164.2667,1,Horizontal,4,261,0.504,1,1,week
1658ed2e894e006d49f725ad6f,8/10/2019 3:38,8/16/2019 23:54,0,164.2667,164.2667,1,Vertical,6,262,0.691,1,1,week
1658ed2e894e006d49f725ad6f,8/10/2019 3:38,8/16/2019 23:54,0,164.2667,164.2667,1,Vertical,10,263,0.496,1,1,week
1658ed2e894e006d49f725ad6f,8/10/2019 3:38,8/16/2019 23:54,0,164.2667,164.2667,1,Vertical,-2,264,0.497,1,1,week
1658ed2e894e006d49f725ad6f,8/10/2019 3:38,8/16/2019 23:54,0,164.2667,164.2667,1,Horizontal,0,265,0.857,1,1,week
1658ed2e894e006d49f725ad6f,8/10/2019 3:38,8/16/2019 23:54,0,164.2667,164.2667,1,Horizontal,4,266,0.569,1,1,week
1658ed2e894e006d49f725ad6f,8/10/2019 3:38,8/16/2019 23:54,0,164.2667,164.2667,1,Horizontal,-4,267,0.478,0,1,week
1658ed2e894e006d49f725ad6f,8/10/2019 3:38,8/16/2019 23:54,0,164.2667,164.2667,1,Vertical,0,268,0.773,0,1,week
1658ed2e894e006d49f725ad6f,8/10/2019 3:38,8/16/2019 23:54,0,164.2667,164.2667,1,Vertical,-2,269,0.483,0,1,week
1658ed2e894e006d49f725ad6f,8/10/2019 3:38,8/16/2019 23:54,0,164.2667,164.2667,1,Vertical,4,270,0.963,1,1,week
1658ed2e894e006d49f725ad6f,8/10/2019 3:38,8/16/2019 23:54,0,164.2667,164.2667,1,Horizontal,-8,271,1.205,0,1,week
1658ed2e894e006d49f725ad6f,8/10/2019 3:38,8/16/2019 23:54,0,164.2667,164.2667,1,Horizontal,-8,272,0.423,0,1,week
1658ed2e894e006d49f725ad6f,8/10/2019 3:38,8/16/2019 23:54,0,164.2667,164.2667,1,Horizontal,6,273,1.077,1,1,week
1658ed2e894e006d49f725ad6f,8/10/2019 3:38,8/16/2019 23:54,0,164.2667,164.2667,1,Vertical,-10,274,0.484,0,1,week
1658ed2e894e006d49f725ad6f,8/10/2019 3:38,8/16/2019 23:54,0,164.2667,164.2667,1,Vertical,2,275,0.849,0,1,week
1658ed2e894e006d49f725ad6f,8/10/2019 3:38,8/16/2019 23:54,0,164.2667,164.2667,1,Vertical,-2,276,0.578,0,1,week
1658ed2e894e006d49f725ad6f,8/10/2019 3:38,8/16/2019 23:54,0,164.2667,164.2667,1,Horizontal,0,277,1.282,0,1,week
1658ed2e894e006d49f725ad6f,8/10/2019 3:38,8/16/2019 23:54,0,164.2667,164.2667,1,Horizontal,-4,278,0.505,0,1,week
1658ed2e894e006d49f725ad6f,8/10/2019 3:38,8/16/2019 23:54,0,164.2667,164.2667,1,Horizontal,-6,279,0.472,0,1,week
1658ed2e894e006d49f725ad6f,8/10/2019 3:38,8/16/2019 23:54,0,164.2667,164.2667,1,Vertical,0,280,0.679,0,1,week
1658ed2e894e006d49f725ad6f,8/10/2019 3:38,8/16/2019 23:54,0,164.2667,164.2667,1,Vertical,10,281,0.682,1,1,week
1658ed2e894e006d49f725ad6f,8/10/2019 3:38,8/16/2019 23:54,0,164.2667,164.2667,1,Vertical,-4,282,0.695,0,1,week
1658ed2e894e006d49f725ad6f,8/10/2019 3:38,8/16/2019 23:54,0,164.2667,164.2667,1,Horizontal,4,283,0.538,1,1,week
1658ed2e894e006d49f725ad6f,8/10/2019 3:38,8/16/2019 23:54,0,164.2667,164.2667,1,Horizontal,6,284,0.913,1,1,week
1658ed2e894e006d49f725ad6f,8/10/2019 3:38,8/16/2019 23:54,0,164.2667,164.2667,1,Horizontal,10,285,0.478,1,1,week
1658ed2e894e006d49f725ad6f,8/10/2019 3:38,8/16/2019 23:54,0,164.2667,164.2667,1,Vertical,0,286,0.907,1,1,week
1658ed2e894e006d49f725ad6f,8/10/2019 3:38,8/16/2019 23:54,0,164.2667,164.2667,1,Vertical,-8,287,0.468,0,1,week
1658ed2e894e006d49f725ad6f,8/10/2019 3:38,8/16/2019 23:54,0,164.2667,164.2667,1,Vertical,8,288,0.674,1,1,week
1658ed2e894e006d49f725ad6f,8/10/2019 3:38,8/16/2019 23:54,0,164.2667,164.2667,1,Horizontal,0,289,0.66,0,1,week
1658ed2e894e006d49f725ad6f,8/10/2019 3:38,8/16/2019 23:54,0,164.2667,164.2667,1,Horizontal,2,290,0.714,1,1,week
1658ed2e894e006d49f725ad6f,8/10/2019 3:38,8/16/2019 23:54,0,164.2667,164.2667,1,Horizontal,-2,291,0.638,0,1,week
1658ed2e894e006d49f725ad6f,8/10/2019 3:38,8/16/2019 23:54,0,164.2667,164.2667,1,Vertical,4,292,0.696,1,1,week
1658ed2e894e006d49f725ad6f,8/10/2019 3:38,8/16/2019 23:54,0,164.2667,164.2667,1,Vertical,-6,293,0.709,0,1,week
1658ed2e894e006d49f725ad6f,8/10/2019 3:38,8/16/2019 23:54,0,164.2667,164.2667,1,Vertical,4,294,0.555,1,1,week
1658ed2e894e006d49f725ad6f,8/10/2019 3:38,8/16/2019 23:54,0,164.2667,164.2667,1,Horizontal,-2,295,0.927,0,1,week
1658ed2e894e006d49f725ad6f,8/10/2019 3:38,8/16/2019 23:54,0,164.2667,164.2667,1,Horizontal,-8,296,0.476,0,1,week
1658ed2e894e006d49f725ad6f,8/10/2019 3:38,8/16/2019 23:54,0,164.2667,164.2667,1,Horizontal,2,297,0.602,1,1,week
1658ed2e894e006d49f725ad6f,8/10/2019 3:38,8/16/2019 23:54,0,164.2667,164.2667,1,Vertical,0,298,0.8,1,1,week
1658ed2e894e006d49f725ad6f,8/10/2019 3:38,8/16/2019 23:54,0,164.2667,164.2667,1,Vertical,4,299,0.663,1,1,week
1658ed2e894e006d49f725ad6f,8/10/2019 3:38,8/16/2019 23:54,0,164.2667,164.2667,1,Vertical,6,300,0.505,1,1,week
1658ed2e894e006d49f725ad6f,8/10/2019 3:38,8/16/2019 23:54,0,164.2667,164.2667,1,Horizontal,0,301,3.875,1,1,week
1658ed2e894e006d49f725ad6f,8/10/2019 3:38,8/16/2019 23:54,0,164.2667,164.2667,1,Horizontal,6,302,0.545,1,1,week
1658ed2e894e006d49f725ad6f,8/10/2019 3:38,8/16/2019 23:54,0,164.2667,164.2667,1,Horizontal,8,303,0.902,1,1,week
1658ed2e894e006d49f725ad6f,8/10/2019 3:38,8/16/2019 23:54,0,164.2667,164.2667,1,Vertical,0,304,1.616,0,1,week
1658ed2e894e006d49f725ad6f,8/10/2019 3:38,8/16/2019 23:54,0,164.2667,164.2667,1,Vertical,8,305,0.731,1,1,week
1658ed2e894e006d49f725ad6f,8/10/2019 3:38,8/16/2019 23:54,0,164.2667,164.2667,1,Vertical,8,306,0.797,1,1,week
1658ed2e894e006d49f725ad6f,8/10/2019 3:38,8/16/2019 23:54,0,164.2667,164.2667,1,Horizontal,0,307,7.384,1,1,week
1658ed2e894e006d49f725ad6f,8/10/2019 3:38,8/16/2019 23:54,0,164.2667,164.2667,1,Horizontal,-10,308,1.669,0,1,week
1658ed2e894e006d49f725ad6f,8/10/2019 3:38,8/16/2019 23:54,0,164.2667,164.2667,1,Horizontal,10,309,1.165,1,1,week
1658ed2e894e006d49f725ad6f,8/10/2019 3:38,8/16/2019 23:54,0,164.2667,164.2667,1,Vertical,-6,310,2.435,0,1,week
1658ed2e894e006d49f725ad6f,8/10/2019 3:38,8/16/2019 23:54,0,164.2667,164.2667,1,Vertical,-8,311,1.1,0,1,week
1658ed2e894e006d49f725ad6f,8/10/2019 3:38,8/16/2019 23:54,0,164.2667,164.2667,1,Vertical,-2,312,0.974,0,1,week
1658ed2e894e006d49f725ad6f,8/10/2019 3:38,8/16/2019 23:54,0,164.2667,164.2667,1,Horizontal,8,313,0.608,1,1,week
1658ed2e894e006d49f725ad6f,8/10/2019 3:38,8/16/2019 23:54,0,164.2667,164.2667,1,Horizontal,-8,314,0.633,0,1,week
1658ed2e894e006d49f725ad6f,8/10/2019 3:38,8/16/2019 23:54,0,164.2667,164.2667,1,Horizontal,-2,315,1.131,0,1,week
1658ed2e894e006d49f725ad6f,8/10/2019 3:38,8/16/2019 23:54,0,164.2667,164.2667,1,Vertical,0,316,3.719,1,1,week
1658ed2e894e006d49f725ad6f,8/10/2019 3:38,8/16/2019 23:54,0,164.2667,164.2667,1,Vertical,8,317,1.102,1,1,week
1658ed2e894e006d49f725ad6f,8/10/2019 3:38,8/16/2019 23:54,0,164.2667,164.2667,1,Vertical,-8,318,0.68,0,1,week
1658ed2e894e006d49f725ad6f,8/10/2019 3:38,8/16/2019 23:54,0,164.2667,164.2667,1,Horizontal,-6,319,0.522,0,1,week
1658ed2e894e006d49f725ad6f,8/10/2019 3:38,8/16/2019 23:54,0,164.2667,164.2667,1,Horizontal,2,320,1.512,1,1,week
1658ed2e894e006d49f725ad6f,8/10/2019 3:38,8/16/2019 23:54,0,164.2667,164.2667,1,Horizontal,6,321,0.893,1,1,week
1658ed2e894e006d49f725ad6f,8/10/2019 3:38,8/16/2019 23:54,0,164.2667,164.2667,1,Vertical,-10,322,0.592,0,1,week
1658ed2e894e006d49f725ad6f,8/10/2019 3:38,8/16/2019 23:54,0,164.2667,164.2667,1,Vertical,2,323,4.631,1,1,week
1658ed2e894e006d49f725ad6f,8/10/2019 3:38,8/16/2019 23:54,0,164.2667,164.2667,1,Vertical,2,324,2.036,1,1,week
1658ed2e894e006d49f725ad6f,8/10/2019 3:38,8/16/2019 23:54,0,164.2667,164.2667,1,Horizontal,0,325,2.911,0,1,week
1658ed2e894e006d49f725ad6f,8/10/2019 3:38,8/16/2019 23:54,0,164.2667,164.2667,1,Horizontal,8,326,0.639,1,1,week
1658ed2e894e006d49f725ad6f,8/10/2019 3:38,8/16/2019 23:54,0,164.2667,164.2667,1,Horizontal,-4,327,0.636,0,1,week
1658ed2e894e006d49f725ad6f,8/10/2019 3:38,8/16/2019 23:54,0,164.2667,164.2667,1,Vertical,0,328,2.812,1,1,week
1658ed2e894e006d49f725ad6f,8/10/2019 3:38,8/16/2019 23:54,0,164.2667,164.2667,1,Vertical,6,329,1.144,1,1,week
1658ed2e894e006d49f725ad6f,8/10/2019 3:38,8/16/2019 23:54,0,164.2667,164.2667,1,Vertical,6,330,1.262,1,1,week
1658ed2e894e006d49f725ad6f,8/10/2019 3:38,8/16/2019 23:54,0,164.2667,164.2667,1,Horizontal,0,331,3.087,1,1,week
1658ed2e894e006d49f725ad6f,8/10/2019 3:38,8/16/2019 23:54,0,164.2667,164.2667,1,Horizontal,-6,332,0.864,0,1,week
1658ed2e894e006d49f725ad6f,8/10/2019 3:38,8/16/2019 23:54,0,164.2667,164.2667,1,Horizontal,8,333,0.552,1,1,week
1658ed2e894e006d49f725ad6f,8/10/2019 3:38,8/16/2019 23:54,0,164.2667,164.2667,1,Vertical,-6,334,1.189,0,1,week
1658ed2e894e006d49f725ad6f,8/10/2019 3:38,8/16/2019 23:54,0,164.2667,164.2667,1,Vertical,-10,335,0.666,0,1,week
1658ed2e894e006d49f725ad6f,8/10/2019 3:38,8/16/2019 23:54,0,164.2667,164.2667,1,Vertical,-8,336,0.868,0,1,week
1658ed2e894e006d49f725ad6f,8/10/2019 3:38,8/16/2019 23:54,0,164.2667,164.2667,1,Horizontal,-4,337,0.636,0,1,week
1658ed2e894e006d49f725ad6f,8/10/2019 3:38,8/16/2019 23:54,0,164.2667,164.2667,1,Horizontal,-10,338,0.595,0,1,week
1658ed2e894e006d49f725ad6f,8/10/2019 3:38,8/16/2019 23:54,0,164.2667,164.2667,1,Horizontal,2,339,1.397,1,1,week
1658ed2e894e006d49f725ad6f,8/10/2019 3:38,8/16/2019 23:54,0,164.2667,164.2667,1,Vertical,0,340,2.046,1,1,week
1658ed2e894e006d49f725ad6f,8/10/2019 3:38,8/16/2019 23:54,0,164.2667,164.2667,1,Vertical,-4,341,0.885,0,1,week
1658ed2e894e006d49f725ad6f,8/10/2019 3:38,8/16/2019 23:54,0,164.2667,164.2667,1,Vertical,-4,342,1.134,0,1,week
1658ed2e894e006d49f725ad6f,8/10/2019 3:38,8/16/2019 23:54,0,164.2667,164.2667,1,Horizontal,4,343,0.556,1,1,week
1658ed2e894e006d49f725ad6f,8/10/2019 3:38,8/16/2019 23:54,0,164.2667,164.2667,1,Horizontal,-6,344,0.603,0,1,week
1658ed2e894e006d49f725ad6f,8/10/2019 3:38,8/16/2019 23:54,0,164.2667,164.2667,1,Horizontal,-10,345,0.61,0,1,week
1658ed2e894e006d49f725ad6f,8/10/2019 3:38,8/16/2019 23:54,0,164.2667,164.2667,1,Vertical,-6,346,0.686,0,1,week
1658ed2e894e006d49f725ad6f,8/10/2019 3:38,8/16/2019 23:54,0,164.2667,164.2667,1,Vertical,8,347,0.838,1,1,week
1658ed2e894e006d49f725ad6f,8/10/2019 3:38,8/16/2019 23:54,0,164.2667,164.2667,1,Vertical,4,348,0.971,1,1,week
1658ed2e894e006d49f725ad6f,8/10/2019 3:38,8/16/2019 23:54,0,164.2667,164.2667,1,Horizontal,2,349,1.408,1,1,week
1658ed2e894e006d49f725ad6f,8/10/2019 3:38,8/16/2019 23:54,0,164.2667,164.2667,1,Horizontal,8,350,0.589,1,1,week
1658ed2e894e006d49f725ad6f,8/10/2019 3:38,8/16/2019 23:54,0,164.2667,164.2667,1,Horizontal,-10,351,0.508,0,1,week
1658ed2e894e006d49f725ad6f,8/10/2019 3:38,8/16/2019 23:54,0,164.2667,164.2667,1,Vertical,-8,352,0.691,0,1,week
1658ed2e894e006d49f725ad6f,8/10/2019 3:38,8/16/2019 23:54,0,164.2667,164.2667,1,Vertical,-2,353,0.549,1,1,week
1658ed2e894e006d49f725ad6f,8/10/2019 3:38,8/16/2019 23:54,0,164.2667,164.2667,1,Vertical,-6,354,0.925,0,1,week
1658ed2e894e006d49f725ad6f,8/10/2019 3:38,8/16/2019 23:54,0,164.2667,164.2667,1,Horizontal,0,355,1.074,0,1,week
1658ed2e894e006d49f725ad6f,8/10/2019 3:38,8/16/2019 23:54,0,164.2667,164.2667,1,Horizontal,10,356,0.566,1,1,week
1658ed2e894e006d49f725ad6f,8/10/2019 3:38,8/16/2019 23:54,0,164.2667,164.2667,1,Horizontal,6,357,0.646,1,1,week
1658ed2e894e006d49f725ad6f,8/10/2019 3:38,8/16/2019 23:54,0,164.2667,164.2667,1,Vertical,0,358,2.095,0,1,week
1658ed2e894e006d49f725ad6f,8/10/2019 3:38,8/16/2019 23:54,0,164.2667,164.2667,1,Vertical,10,359,0.709,1,1,week
1658ed2e894e006d49f725ad6f,8/10/2019 3:38,8/16/2019 23:54,0,164.2667,164.2667,1,Vertical,10,360,0.762,1,1,week
1658ed2e894e006d49f725ad6f,8/10/2019 3:38,8/16/2019 23:54,0,164.2667,164.2667,1,Horizontal,6,361,1.152,1,1,week
1658ed2e894e006d49f725ad6f,8/10/2019 3:38,8/16/2019 23:54,0,164.2667,164.2667,1,Horizontal,-2,362,0.715,0,1,week
1658ed2e894e006d49f725ad6f,8/10/2019 3:38,8/16/2019 23:54,0,164.2667,164.2667,1,Horizontal,4,363,0.539,1,1,week
1658ed2e894e006d49f725ad6f,8/10/2019 3:38,8/16/2019 23:54,0,164.2667,164.2667,1,Vertical,0,364,2.886,1,1,week
1658ed2e894e006d49f725ad6f,8/10/2019 3:38,8/16/2019 23:54,0,164.2667,164.2667,1,Vertical,6,365,1.34,1,1,week
1658ed2e894e006d49f725ad6f,8/10/2019 3:38,8/16/2019 23:54,0,164.2667,164.2667,1,Vertical,-6,366,1.027,0,1,week
1658ed2e894e006d49f725ad6f,8/10/2019 3:38,8/16/2019 23:54,0,164.2667,164.2667,1,Horizontal,0,367,10.54,1,1,week
1658ed2e894e006d49f725ad6f,8/10/2019 3:38,8/16/2019 23:54,0,164.2667,164.2667,1,Horizontal,6,368,0.737,1,1,week
1658ed2e894e006d49f725ad6f,8/10/2019 3:38,8/16/2019 23:54,0,164.2667,164.2667,1,Horizontal,6,369,0.56,1,1,week
1658ed2e894e006d49f725ad6f,8/10/2019 3:38,8/16/2019 23:54,0,164.2667,164.2667,1,Vertical,-2,370,1.03,0,1,week
1658ed2e894e006d49f725ad6f,8/10/2019 3:38,8/16/2019 23:54,0,164.2667,164.2667,1,Vertical,6,371,0.78,1,1,week
1658ed2e894e006d49f725ad6f,8/10/2019 3:38,8/16/2019 23:54,0,164.2667,164.2667,1,Vertical,4,372,0.918,1,1,week
1658ed2e894e006d49f725ad6f,8/10/2019 3:38,8/16/2019 23:54,0,164.2667,164.2667,1,Horizontal,0,373,0.904,0,1,week
1658ed2e894e006d49f725ad6f,8/10/2019 3:38,8/16/2019 23:54,0,164.2667,164.2667,1,Horizontal,-2,374,0.641,0,1,week
1658ed2e894e006d49f725ad6f,8/10/2019 3:38,8/16/2019 23:54,0,164.2667,164.2667,1,Horizontal,-4,375,0.474,0,1,week
1658ed2e894e006d49f725ad6f,8/10/2019 3:38,8/16/2019 23:54,0,164.2667,164.2667,1,Vertical,0,376,1.058,0,1,week
1658ed2e894e006d49f725ad6f,8/10/2019 3:38,8/16/2019 23:54,0,164.2667,164.2667,1,Vertical,2,377,1.025,1,1,week
1658ed2e894e006d49f725ad6f,8/10/2019 3:38,8/16/2019 23:54,0,164.2667,164.2667,1,Vertical,10,378,0.637,1,1,week
1658ed2e894e006d49f725ad6f,8/10/2019 3:38,8/16/2019 23:54,0,164.2667,164.2667,1,Horizontal,-6,379,0.56,0,1,week
1658ed2e894e006d49f725ad6f,8/10/2019 3:38,8/16/2019 23:54,0,164.2667,164.2667,1,Horizontal,8,380,0.617,1,1,week
1658ed2e894e006d49f725ad6f,8/10/2019 3:38,8/16/2019 23:54,0,164.2667,164.2667,1,Horizontal,4,381,0.609,1,1,week
1658ed2e894e006d49f725ad6f,8/10/2019 3:38,8/16/2019 23:54,0,164.2667,164.2667,1,Vertical,0,382,0.816,0,1,week
1658ed2e894e006d49f725ad6f,8/10/2019 3:38,8/16/2019 23:54,0,164.2667,164.2667,1,Vertical,-4,383,0.682,0,1,week
1658ed2e894e006d49f725ad6f,8/10/2019 3:38,8/16/2019 23:54,0,164.2667,164.2667,1,Vertical,2,384,0.653,1,1,week
1658ed2e894e006d49f725ad6f,8/10/2019 3:38,8/16/2019 23:54,0,164.2667,164.2667,1,Horizontal,0,385,2.791,1,1,week
1658ed2e894e006d49f725ad6f,8/10/2019 3:38,8/16/2019 23:54,0,164.2667,164.2667,1,Horizontal,2,386,0.982,1,1,week
1658ed2e894e006d49f725ad6f,8/10/2019 3:38,8/16/2019 23:54,0,164.2667,164.2667,1,Horizontal,2,387,0.819,1,1,week
1658ed2e894e006d49f725ad6f,8/10/2019 3:38,8/16/2019 23:54,0,164.2667,164.2667,1,Vertical,-8,388,0.774,0,1,week
1658ed2e894e006d49f725ad6f,8/10/2019 3:38,8/16/2019 23:54,0,164.2667,164.2667,1,Vertical,-10,389,0.602,0,1,week
1658ed2e894e006d49f725ad6f,8/10/2019 3:38,8/16/2019 23:54,0,164.2667,164.2667,1,Vertical,-2,390,1.019,0,1,week
1658ed2e894e006d49f725ad6f,8/10/2019 3:38,8/16/2019 23:54,0,164.2667,164.2667,1,Horizontal,-4,391,1.029,0,1,week
1658ed2e894e006d49f725ad6f,8/10/2019 3:38,8/16/2019 23:54,0,164.2667,164.2667,1,Horizontal,-10,392,0.487,0,1,week
1658ed2e894e006d49f725ad6f,8/10/2019 3:38,8/16/2019 23:54,0,164.2667,164.2667,1,Horizontal,2,393,0.492,1,1,week
1658ed2e894e006d49f725ad6f,8/10/2019 3:38,8/16/2019 23:54,0,164.2667,164.2667,1,Vertical,0,394,0.746,1,1,week
1658ed2e894e006d49f725ad6f,8/10/2019 3:38,8/16/2019 23:54,0,164.2667,164.2667,1,Vertical,-8,395,0.581,0,1,week
1658ed2e894e006d49f725ad6f,8/10/2019 3:38,8/16/2019 23:54,0,164.2667,164.2667,1,Vertical,2,396,0.826,1,1,week
1658ed2e894e006d49f725ad6f,8/10/2019 3:38,8/16/2019 23:54,0,164.2667,164.2667,1,Horizontal,0,397,1.02,1,1,week
1658ed2e894e006d49f725ad6f,8/10/2019 3:38,8/16/2019 23:54,0,164.2667,164.2667,1,Horizontal,4,398,0.647,1,1,week
1658ed2e894e006d49f725ad6f,8/10/2019 3:38,8/16/2019 23:54,0,164.2667,164.2667,1,Horizontal,-2,399,0.862,0,1,week
1658ed2e894e006d49f725ad6f,8/10/2019 3:38,8/16/2019 23:54,0,164.2667,164.2667,1,Vertical,8,400,0.713,1,1,week
1658ed2e894e006d49f725ad6f,8/10/2019 3:38,8/16/2019 23:54,0,164.2667,164.2667,1,Vertical,-6,401,0.651,0,1,week
1658ed2e894e006d49f725ad6f,8/10/2019 3:38,8/16/2019 23:54,0,164.2667,164.2667,1,Vertical,-4,402,0.513,0,1,week
1658ed2e894e006d49f725ad6f,8/10/2019 3:38,8/16/2019 23:54,0,164.2667,164.2667,1,Horizontal,2,403,0.917,1,1,week
1658ed2e894e006d49f725ad6f,8/10/2019 3:38,8/16/2019 23:54,0,164.2667,164.2667,1,Horizontal,8,404,0.51,1,1,week
1658ed2e894e006d49f725ad6f,8/10/2019 3:38,8/16/2019 23:54,0,164.2667,164.2667,1,Horizontal,-8,405,0.522,0,1,week
1658ed2e894e006d49f725ad6f,8/10/2019 3:38,8/16/2019 23:54,0,164.2667,164.2667,1,Vertical,-10,406,0.629,0,1,week
1658ed2e894e006d49f725ad6f,8/10/2019 3:38,8/16/2019 23:54,0,164.2667,164.2667,1,Vertical,10,407,0.686,1,1,week
1658ed2e894e006d49f725ad6f,8/10/2019 3:38,8/16/2019 23:54,0,164.2667,164.2667,1,Vertical,-4,408,0.562,0,1,week
1658ed2e894e006d49f725ad6f,8/10/2019 3:38,8/16/2019 23:54,0,164.2667,164.2667,1,Horizontal,8,409,0.556,1,1,week
