ID,endDate,startDate,didSess3,hourDiff21,hourDiffPrev,session,task,dev,trialNum,rt,response,subj_idx,timeCondition
02d10aa2ee456550830fd62e02,8/21/2019 12:34,11/15/2019 12:38,0,2064.0667,2064.0667,1,Horizontal,10,1,0.892,1,0,months3
02d10aa2ee456550830fd62e02,8/21/2019 12:34,11/15/2019 12:38,0,2064.0667,2064.0667,1,Horizontal,-6,2,1.032,0,0,months3
02d10aa2ee456550830fd62e02,8/21/2019 12:34,11/15/2019 12:38,0,2064.0667,2064.0667,1,Horizontal,-10,3,1.859,0,0,months3
02d10aa2ee456550830fd62e02,8/21/2019 12:34,11/15/2019 12:38,0,2064.0667,2064.0667,1,Vertical,-4,4,1.758,0,0,months3
02d10aa2ee456550830fd62e02,8/21/2019 12:34,11/15/2019 12:38,0,2064.0667,2064.0667,1,Vertical,10,5,0.952,1,0,months3
02d10aa2ee456550830fd62e02,8/21/2019 12:34,11/15/2019 12:38,0,2064.0667,2064.0667,1,Vertical,-10,6,0.665,0,0,months3
02d10aa2ee456550830fd62e02,8/21/2019 12:34,11/15/2019 12:38,0,2064.0667,2064.0667,1,Horizontal,0,7,1.978,0,0,months3
02d10aa2ee456550830fd62e02,8/21/2019 12:34,11/15/2019 12:38,0,2064.0667,2064.0667,1,Horizontal,-4,8,2.21,0,0,months3
02d10aa2ee456550830fd62e02,8/21/2019 12:34,11/15/2019 12:38,0,2064.0667,2064.0667,1,Horizontal,-2,9,2.635,0,0,months3
02d10aa2ee456550830fd62e02,8/21/2019 12:34,11/15/2019 12:38,0,2064.0667,2064.0667,1,Vertical,2,10,1.104,1,0,months3
02d10aa2ee456550830fd62e02,8/21/2019 12:34,11/15/2019 12:38,0,2064.0667,2064.0667,1,Vertical,-4,11,1.414,0,0,months3
02d10aa2ee456550830fd62e02,8/21/2019 12:34,11/15/2019 12:38,0,2064.0667,2064.0667,1,Vertical,6,12,0.57,1,0,months3
02d10aa2ee456550830fd62e02,8/21/2019 12:34,11/15/2019 12:38,0,2064.0667,2064.0667,1,Horizontal,0,13,0.685,1,0,months3
02d10aa2ee456550830fd62e02,8/21/2019 12:34,11/15/2019 12:38,0,2064.0667,2064.0667,1,Horizontal,-2,14,0.688,0,0,months3
02d10aa2ee456550830fd62e02,8/21/2019 12:34,11/15/2019 12:38,0,2064.0667,2064.0667,1,Horizontal,10,15,0.531,1,0,months3
02d10aa2ee456550830fd62e02,8/21/2019 12:34,11/15/2019 12:38,0,2064.0667,2064.0667,1,Vertical,0,16,2.666,0,0,months3
02d10aa2ee456550830fd62e02,8/21/2019 12:34,11/15/2019 12:38,0,2064.0667,2064.0667,1,Vertical,2,17,0.605,1,0,months3
02d10aa2ee456550830fd62e02,8/21/2019 12:34,11/15/2019 12:38,0,2064.0667,2064.0667,1,Vertical,-10,18,0.837,0,0,months3
02d10aa2ee456550830fd62e02,8/21/2019 12:34,11/15/2019 12:38,0,2064.0667,2064.0667,1,Horizontal,4,19,0.682,1,0,months3
02d10aa2ee456550830fd62e02,8/21/2019 12:34,11/15/2019 12:38,0,2064.0667,2064.0667,1,Horizontal,-8,20,0.642,0,0,months3
02d10aa2ee456550830fd62e02,8/21/2019 12:34,11/15/2019 12:38,0,2064.0667,2064.0667,1,Horizontal,4,21,0.529,1,0,months3
02d10aa2ee456550830fd62e02,8/21/2019 12:34,11/15/2019 12:38,0,2064.0667,2064.0667,1,Vertical,6,22,0.547,1,0,months3
02d10aa2ee456550830fd62e02,8/21/2019 12:34,11/15/2019 12:38,0,2064.0667,2064.0667,1,Vertical,10,23,1.087,1,0,months3
02d10aa2ee456550830fd62e02,8/21/2019 12:34,11/15/2019 12:38,0,2064.0667,2064.0667,1,Vertical,-2,24,1.3,0,0,months3
02d10aa2ee456550830fd62e02,8/21/2019 12:34,11/15/2019 12:38,0,2064.0667,2064.0667,1,Horizontal,0,25,1.699,0,0,months3
02d10aa2ee456550830fd62e02,8/21/2019 12:34,11/15/2019 12:38,0,2064.0667,2064.0667,1,Horizontal,4,26,1.063,1,0,months3
02d10aa2ee456550830fd62e02,8/21/2019 12:34,11/15/2019 12:38,0,2064.0667,2064.0667,1,Horizontal,-4,27,0.59,0,0,months3
02d10aa2ee456550830fd62e02,8/21/2019 12:34,11/15/2019 12:38,0,2064.0667,2064.0667,1,Vertical,0,28,2.806,1,0,months3
02d10aa2ee456550830fd62e02,8/21/2019 12:34,11/15/2019 12:38,0,2064.0667,2064.0667,1,Vertical,-2,29,0.699,0,0,months3
02d10aa2ee456550830fd62e02,8/21/2019 12:34,11/15/2019 12:38,0,2064.0667,2064.0667,1,Vertical,4,30,0.543,1,0,months3
02d10aa2ee456550830fd62e02,8/21/2019 12:34,11/15/2019 12:38,0,2064.0667,2064.0667,1,Horizontal,-8,31,2.357,0,0,months3
02d10aa2ee456550830fd62e02,8/21/2019 12:34,11/15/2019 12:38,0,2064.0667,2064.0667,1,Horizontal,-8,32,6.162,0,0,months3
02d10aa2ee456550830fd62e02,8/21/2019 12:34,11/15/2019 12:38,0,2064.0667,2064.0667,1,Horizontal,6,33,1.261,1,0,months3
02d10aa2ee456550830fd62e02,8/21/2019 12:34,11/15/2019 12:38,0,2064.0667,2064.0667,1,Vertical,-10,34,0.866,0,0,months3
02d10aa2ee456550830fd62e02,8/21/2019 12:34,11/15/2019 12:38,0,2064.0667,2064.0667,1,Vertical,2,35,0.898,1,0,months3
02d10aa2ee456550830fd62e02,8/21/2019 12:34,11/15/2019 12:38,0,2064.0667,2064.0667,1,Vertical,-2,36,1.675,0,0,months3
02d10aa2ee456550830fd62e02,8/21/2019 12:34,11/15/2019 12:38,0,2064.0667,2064.0667,1,Horizontal,0,37,1.06,1,0,months3
02d10aa2ee456550830fd62e02,8/21/2019 12:34,11/15/2019 12:38,0,2064.0667,2064.0667,1,Horizontal,-4,38,0.919,0,0,months3
02d10aa2ee456550830fd62e02,8/21/2019 12:34,11/15/2019 12:38,0,2064.0667,2064.0667,1,Horizontal,-6,39,3.178,0,0,months3
02d10aa2ee456550830fd62e02,8/21/2019 12:34,11/15/2019 12:38,0,2064.0667,2064.0667,1,Vertical,0,40,1.454,0,0,months3
02d10aa2ee456550830fd62e02,8/21/2019 12:34,11/15/2019 12:38,0,2064.0667,2064.0667,1,Vertical,10,41,0.774,1,0,months3
02d10aa2ee456550830fd62e02,8/21/2019 12:34,11/15/2019 12:38,0,2064.0667,2064.0667,1,Vertical,-4,42,0.93,0,0,months3
02d10aa2ee456550830fd62e02,8/21/2019 12:34,11/15/2019 12:38,0,2064.0667,2064.0667,1,Horizontal,4,43,0.551,1,0,months3
02d10aa2ee456550830fd62e02,8/21/2019 12:34,11/15/2019 12:38,0,2064.0667,2064.0667,1,Horizontal,6,44,0.544,1,0,months3
02d10aa2ee456550830fd62e02,8/21/2019 12:34,11/15/2019 12:38,0,2064.0667,2064.0667,1,Horizontal,10,45,1.401,1,0,months3
02d10aa2ee456550830fd62e02,8/21/2019 12:34,11/15/2019 12:38,0,2064.0667,2064.0667,1,Vertical,0,46,1.25,0,0,months3
02d10aa2ee456550830fd62e02,8/21/2019 12:34,11/15/2019 12:38,0,2064.0667,2064.0667,1,Vertical,-8,47,0.764,0,0,months3
02d10aa2ee456550830fd62e02,8/21/2019 12:34,11/15/2019 12:38,0,2064.0667,2064.0667,1,Vertical,8,48,0.561,1,0,months3
02d10aa2ee456550830fd62e02,8/21/2019 12:34,11/15/2019 12:38,0,2064.0667,2064.0667,1,Horizontal,0,49,0.564,1,0,months3
02d10aa2ee456550830fd62e02,8/21/2019 12:34,11/15/2019 12:38,0,2064.0667,2064.0667,1,Horizontal,2,50,4.388,1,0,months3
02d10aa2ee456550830fd62e02,8/21/2019 12:34,11/15/2019 12:38,0,2064.0667,2064.0667,1,Horizontal,-2,51,1.063,0,0,months3
02d10aa2ee456550830fd62e02,8/21/2019 12:34,11/15/2019 12:38,0,2064.0667,2064.0667,1,Vertical,4,52,1.669,1,0,months3
02d10aa2ee456550830fd62e02,8/21/2019 12:34,11/15/2019 12:38,0,2064.0667,2064.0667,1,Vertical,-6,53,0.8,0,0,months3
02d10aa2ee456550830fd62e02,8/21/2019 12:34,11/15/2019 12:38,0,2064.0667,2064.0667,1,Vertical,4,54,0.621,1,0,months3
02d10aa2ee456550830fd62e02,8/21/2019 12:34,11/15/2019 12:38,0,2064.0667,2064.0667,1,Horizontal,-2,55,1.731,0,0,months3
02d10aa2ee456550830fd62e02,8/21/2019 12:34,11/15/2019 12:38,0,2064.0667,2064.0667,1,Horizontal,-8,56,0.623,0,0,months3
02d10aa2ee456550830fd62e02,8/21/2019 12:34,11/15/2019 12:38,0,2064.0667,2064.0667,1,Horizontal,2,57,0.608,1,0,months3
02d10aa2ee456550830fd62e02,8/21/2019 12:34,11/15/2019 12:38,0,2064.0667,2064.0667,1,Vertical,0,58,2.974,0,0,months3
02d10aa2ee456550830fd62e02,8/21/2019 12:34,11/15/2019 12:38,0,2064.0667,2064.0667,1,Vertical,4,59,0.677,1,0,months3
02d10aa2ee456550830fd62e02,8/21/2019 12:34,11/15/2019 12:38,0,2064.0667,2064.0667,1,Vertical,6,60,0.924,1,0,months3
02d10aa2ee456550830fd62e02,8/21/2019 12:34,11/15/2019 12:38,0,2064.0667,2064.0667,1,Horizontal,0,61,2.489,1,0,months3
02d10aa2ee456550830fd62e02,8/21/2019 12:34,11/15/2019 12:38,0,2064.0667,2064.0667,1,Horizontal,6,62,0.747,1,0,months3
02d10aa2ee456550830fd62e02,8/21/2019 12:34,11/15/2019 12:38,0,2064.0667,2064.0667,1,Horizontal,8,63,0.592,1,0,months3
02d10aa2ee456550830fd62e02,8/21/2019 12:34,11/15/2019 12:38,0,2064.0667,2064.0667,1,Vertical,0,64,1.242,0,0,months3
02d10aa2ee456550830fd62e02,8/21/2019 12:34,11/15/2019 12:38,0,2064.0667,2064.0667,1,Vertical,8,65,0.614,1,0,months3
02d10aa2ee456550830fd62e02,8/21/2019 12:34,11/15/2019 12:38,0,2064.0667,2064.0667,1,Vertical,8,66,0.621,1,0,months3
02d10aa2ee456550830fd62e02,8/21/2019 12:34,11/15/2019 12:38,0,2064.0667,2064.0667,1,Horizontal,0,67,5.651,1,0,months3
02d10aa2ee456550830fd62e02,8/21/2019 12:34,11/15/2019 12:38,0,2064.0667,2064.0667,1,Horizontal,-10,68,2.437,0,0,months3
02d10aa2ee456550830fd62e02,8/21/2019 12:34,11/15/2019 12:38,0,2064.0667,2064.0667,1,Horizontal,10,69,1.716,1,0,months3
02d10aa2ee456550830fd62e02,8/21/2019 12:34,11/15/2019 12:38,0,2064.0667,2064.0667,1,Vertical,-6,70,0.731,0,0,months3
02d10aa2ee456550830fd62e02,8/21/2019 12:34,11/15/2019 12:38,0,2064.0667,2064.0667,1,Vertical,-8,71,0.593,0,0,months3
02d10aa2ee456550830fd62e02,8/21/2019 12:34,11/15/2019 12:38,0,2064.0667,2064.0667,1,Vertical,-2,72,1.342,0,0,months3
02d10aa2ee456550830fd62e02,8/21/2019 12:34,11/15/2019 12:38,0,2064.0667,2064.0667,1,Horizontal,8,73,4.861,1,0,months3
02d10aa2ee456550830fd62e02,8/21/2019 12:34,11/15/2019 12:38,0,2064.0667,2064.0667,1,Horizontal,-8,74,17.563,0,0,months3
02d10aa2ee456550830fd62e02,8/21/2019 12:34,11/15/2019 12:38,0,2064.0667,2064.0667,1,Horizontal,-2,75,1.099,0,0,months3
02d10aa2ee456550830fd62e02,8/21/2019 12:34,11/15/2019 12:38,0,2064.0667,2064.0667,1,Vertical,0,76,1.203,0,0,months3
02d10aa2ee456550830fd62e02,8/21/2019 12:34,11/15/2019 12:38,0,2064.0667,2064.0667,1,Vertical,8,77,0.651,1,0,months3
02d10aa2ee456550830fd62e02,8/21/2019 12:34,11/15/2019 12:38,0,2064.0667,2064.0667,1,Vertical,-8,78,0.52,0,0,months3
02d10aa2ee456550830fd62e02,8/21/2019 12:34,11/15/2019 12:38,0,2064.0667,2064.0667,1,Horizontal,-6,79,0.752,0,0,months3
02d10aa2ee456550830fd62e02,8/21/2019 12:34,11/15/2019 12:38,0,2064.0667,2064.0667,1,Horizontal,2,80,0.508,1,0,months3
02d10aa2ee456550830fd62e02,8/21/2019 12:34,11/15/2019 12:38,0,2064.0667,2064.0667,1,Horizontal,6,81,0.627,1,0,months3
02d10aa2ee456550830fd62e02,8/21/2019 12:34,11/15/2019 12:38,0,2064.0667,2064.0667,1,Vertical,-10,82,1.088,0,0,months3
02d10aa2ee456550830fd62e02,8/21/2019 12:34,11/15/2019 12:38,0,2064.0667,2064.0667,1,Vertical,2,83,0.468,1,0,months3
02d10aa2ee456550830fd62e02,8/21/2019 12:34,11/15/2019 12:38,0,2064.0667,2064.0667,1,Vertical,2,84,0.529,1,0,months3
02d10aa2ee456550830fd62e02,8/21/2019 12:34,11/15/2019 12:38,0,2064.0667,2064.0667,1,Horizontal,0,85,5.292,1,0,months3
02d10aa2ee456550830fd62e02,8/21/2019 12:34,11/15/2019 12:38,0,2064.0667,2064.0667,1,Horizontal,8,86,3.424,1,0,months3
02d10aa2ee456550830fd62e02,8/21/2019 12:34,11/15/2019 12:38,0,2064.0667,2064.0667,1,Horizontal,-4,87,0.723,0,0,months3
02d10aa2ee456550830fd62e02,8/21/2019 12:34,11/15/2019 12:38,0,2064.0667,2064.0667,1,Vertical,0,88,3.295,0,0,months3
02d10aa2ee456550830fd62e02,8/21/2019 12:34,11/15/2019 12:38,0,2064.0667,2064.0667,1,Vertical,6,89,0.634,1,0,months3
02d10aa2ee456550830fd62e02,8/21/2019 12:34,11/15/2019 12:38,0,2064.0667,2064.0667,1,Vertical,6,90,0.718,1,0,months3
02d10aa2ee456550830fd62e02,8/21/2019 12:34,11/15/2019 12:38,0,2064.0667,2064.0667,1,Horizontal,0,91,1.757,1,0,months3
02d10aa2ee456550830fd62e02,8/21/2019 12:34,11/15/2019 12:38,0,2064.0667,2064.0667,1,Horizontal,-6,92,10.883,0,0,months3
02d10aa2ee456550830fd62e02,8/21/2019 12:34,11/15/2019 12:38,0,2064.0667,2064.0667,1,Horizontal,8,93,1.474,1,0,months3
02d10aa2ee456550830fd62e02,8/21/2019 12:34,11/15/2019 12:38,0,2064.0667,2064.0667,1,Vertical,-6,94,1.313,0,0,months3
02d10aa2ee456550830fd62e02,8/21/2019 12:34,11/15/2019 12:38,0,2064.0667,2064.0667,1,Vertical,-10,95,0.904,0,0,months3
02d10aa2ee456550830fd62e02,8/21/2019 12:34,11/15/2019 12:38,0,2064.0667,2064.0667,1,Vertical,-8,96,0.788,0,0,months3
02d10aa2ee456550830fd62e02,8/21/2019 12:34,11/15/2019 12:38,0,2064.0667,2064.0667,1,Horizontal,-4,97,1.093,0,0,months3
02d10aa2ee456550830fd62e02,8/21/2019 12:34,11/15/2019 12:38,0,2064.0667,2064.0667,1,Horizontal,-10,98,0.703,0,0,months3
02d10aa2ee456550830fd62e02,8/21/2019 12:34,11/15/2019 12:38,0,2064.0667,2064.0667,1,Horizontal,2,99,0.61,1,0,months3
02d10aa2ee456550830fd62e02,8/21/2019 12:34,11/15/2019 12:38,0,2064.0667,2064.0667,1,Vertical,0,100,3.755,1,0,months3
02d10aa2ee456550830fd62e02,8/21/2019 12:34,11/15/2019 12:38,0,2064.0667,2064.0667,1,Vertical,-4,101,12.294,0,0,months3
02d10aa2ee456550830fd62e02,8/21/2019 12:34,11/15/2019 12:38,0,2064.0667,2064.0667,1,Vertical,-4,102,0.894,0,0,months3
02d10aa2ee456550830fd62e02,8/21/2019 12:34,11/15/2019 12:38,0,2064.0667,2064.0667,1,Horizontal,4,103,0.862,1,0,months3
02d10aa2ee456550830fd62e02,8/21/2019 12:34,11/15/2019 12:38,0,2064.0667,2064.0667,1,Horizontal,-6,104,0.593,0,0,months3
02d10aa2ee456550830fd62e02,8/21/2019 12:34,11/15/2019 12:38,0,2064.0667,2064.0667,1,Horizontal,-10,105,0.554,0,0,months3
02d10aa2ee456550830fd62e02,8/21/2019 12:34,11/15/2019 12:38,0,2064.0667,2064.0667,1,Vertical,-6,106,1.054,0,0,months3
02d10aa2ee456550830fd62e02,8/21/2019 12:34,11/15/2019 12:38,0,2064.0667,2064.0667,1,Vertical,8,107,0.891,1,0,months3
02d10aa2ee456550830fd62e02,8/21/2019 12:34,11/15/2019 12:38,0,2064.0667,2064.0667,1,Vertical,4,108,0.99,1,0,months3
02d10aa2ee456550830fd62e02,8/21/2019 12:34,11/15/2019 12:38,0,2064.0667,2064.0667,1,Horizontal,2,109,1.105,1,0,months3
02d10aa2ee456550830fd62e02,8/21/2019 12:34,11/15/2019 12:38,0,2064.0667,2064.0667,1,Horizontal,8,110,0.523,1,0,months3
02d10aa2ee456550830fd62e02,8/21/2019 12:34,11/15/2019 12:38,0,2064.0667,2064.0667,1,Horizontal,-10,111,0.62,0,0,months3
02d10aa2ee456550830fd62e02,8/21/2019 12:34,11/15/2019 12:38,0,2064.0667,2064.0667,1,Vertical,-8,112,0.836,0,0,months3
02d10aa2ee456550830fd62e02,8/21/2019 12:34,11/15/2019 12:38,0,2064.0667,2064.0667,1,Vertical,-2,113,1.491,0,0,months3
02d10aa2ee456550830fd62e02,8/21/2019 12:34,11/15/2019 12:38,0,2064.0667,2064.0667,1,Vertical,-6,114,0.632,0,0,months3
02d10aa2ee456550830fd62e02,8/21/2019 12:34,11/15/2019 12:38,0,2064.0667,2064.0667,1,Horizontal,0,115,2.091,1,0,months3
02d10aa2ee456550830fd62e02,8/21/2019 12:34,11/15/2019 12:38,0,2064.0667,2064.0667,1,Horizontal,10,116,0.561,1,0,months3
02d10aa2ee456550830fd62e02,8/21/2019 12:34,11/15/2019 12:38,0,2064.0667,2064.0667,1,Horizontal,6,117,0.512,1,0,months3
02d10aa2ee456550830fd62e02,8/21/2019 12:34,11/15/2019 12:38,0,2064.0667,2064.0667,1,Vertical,0,118,0.749,0,0,months3
02d10aa2ee456550830fd62e02,8/21/2019 12:34,11/15/2019 12:38,0,2064.0667,2064.0667,1,Vertical,10,119,0.577,1,0,months3
02d10aa2ee456550830fd62e02,8/21/2019 12:34,11/15/2019 12:38,0,2064.0667,2064.0667,1,Vertical,10,120,0.789,1,0,months3
02d10aa2ee456550830fd62e02,8/21/2019 12:34,11/15/2019 12:38,0,2064.0667,2064.0667,1,Horizontal,6,121,1.117,1,0,months3
02d10aa2ee456550830fd62e02,8/21/2019 12:34,11/15/2019 12:38,0,2064.0667,2064.0667,1,Horizontal,-2,122,3.102,1,0,months3
02d10aa2ee456550830fd62e02,8/21/2019 12:34,11/15/2019 12:38,0,2064.0667,2064.0667,1,Horizontal,4,123,0.582,1,0,months3
02d10aa2ee456550830fd62e02,8/21/2019 12:34,11/15/2019 12:38,0,2064.0667,2064.0667,1,Vertical,0,124,1.303,0,0,months3
02d10aa2ee456550830fd62e02,8/21/2019 12:34,11/15/2019 12:38,0,2064.0667,2064.0667,1,Vertical,6,125,1.942,1,0,months3
02d10aa2ee456550830fd62e02,8/21/2019 12:34,11/15/2019 12:38,0,2064.0667,2064.0667,1,Vertical,-6,126,0.639,0,0,months3
02d10aa2ee456550830fd62e02,8/21/2019 12:34,11/15/2019 12:38,0,2064.0667,2064.0667,1,Horizontal,0,127,1.868,1,0,months3
02d10aa2ee456550830fd62e02,8/21/2019 12:34,11/15/2019 12:38,0,2064.0667,2064.0667,1,Horizontal,6,128,0.662,1,0,months3
02d10aa2ee456550830fd62e02,8/21/2019 12:34,11/15/2019 12:38,0,2064.0667,2064.0667,1,Horizontal,6,129,0.541,1,0,months3
02d10aa2ee456550830fd62e02,8/21/2019 12:34,11/15/2019 12:38,0,2064.0667,2064.0667,1,Vertical,-2,130,1.118,0,0,months3
02d10aa2ee456550830fd62e02,8/21/2019 12:34,11/15/2019 12:38,0,2064.0667,2064.0667,1,Vertical,6,131,0.854,1,0,months3
02d10aa2ee456550830fd62e02,8/21/2019 12:34,11/15/2019 12:38,0,2064.0667,2064.0667,1,Vertical,4,132,2.046,1,0,months3
02d10aa2ee456550830fd62e02,8/21/2019 12:34,11/15/2019 12:38,0,2064.0667,2064.0667,1,Horizontal,0,133,2.148,1,0,months3
02d10aa2ee456550830fd62e02,8/21/2019 12:34,11/15/2019 12:38,0,2064.0667,2064.0667,1,Horizontal,-2,134,3.159,1,0,months3
02d10aa2ee456550830fd62e02,8/21/2019 12:34,11/15/2019 12:38,0,2064.0667,2064.0667,1,Horizontal,-4,135,0.707,0,0,months3
02d10aa2ee456550830fd62e02,8/21/2019 12:34,11/15/2019 12:38,0,2064.0667,2064.0667,1,Vertical,0,136,1.315,0,0,months3
02d10aa2ee456550830fd62e02,8/21/2019 12:34,11/15/2019 12:38,0,2064.0667,2064.0667,1,Vertical,2,137,0.614,0,0,months3
02d10aa2ee456550830fd62e02,8/21/2019 12:34,11/15/2019 12:38,0,2064.0667,2064.0667,1,Vertical,10,138,0.516,1,0,months3
02d10aa2ee456550830fd62e02,8/21/2019 12:34,11/15/2019 12:38,0,2064.0667,2064.0667,1,Horizontal,-6,139,0.617,0,0,months3
02d10aa2ee456550830fd62e02,8/21/2019 12:34,11/15/2019 12:38,0,2064.0667,2064.0667,1,Horizontal,8,140,0.555,1,0,months3
02d10aa2ee456550830fd62e02,8/21/2019 12:34,11/15/2019 12:38,0,2064.0667,2064.0667,1,Horizontal,4,141,0.947,1,0,months3
02d10aa2ee456550830fd62e02,8/21/2019 12:34,11/15/2019 12:38,0,2064.0667,2064.0667,1,Vertical,0,142,1.19,0,0,months3
02d10aa2ee456550830fd62e02,8/21/2019 12:34,11/15/2019 12:38,0,2064.0667,2064.0667,1,Vertical,-4,143,0.95,0,0,months3
02d10aa2ee456550830fd62e02,8/21/2019 12:34,11/15/2019 12:38,0,2064.0667,2064.0667,1,Vertical,2,144,0.692,1,0,months3
02d10aa2ee456550830fd62e02,8/21/2019 12:34,11/15/2019 12:38,0,2064.0667,2064.0667,1,Horizontal,0,145,1.798,1,0,months3
02d10aa2ee456550830fd62e02,8/21/2019 12:34,11/15/2019 12:38,0,2064.0667,2064.0667,1,Horizontal,2,146,1.185,1,0,months3
02d10aa2ee456550830fd62e02,8/21/2019 12:34,11/15/2019 12:38,0,2064.0667,2064.0667,1,Horizontal,2,147,1.376,1,0,months3
02d10aa2ee456550830fd62e02,8/21/2019 12:34,11/15/2019 12:38,0,2064.0667,2064.0667,1,Vertical,-8,148,0.942,0,0,months3
02d10aa2ee456550830fd62e02,8/21/2019 12:34,11/15/2019 12:38,0,2064.0667,2064.0667,1,Vertical,-10,149,0.762,0,0,months3
02d10aa2ee456550830fd62e02,8/21/2019 12:34,11/15/2019 12:38,0,2064.0667,2064.0667,1,Vertical,-2,150,0.501,0,0,months3
02d10aa2ee456550830fd62e02,8/21/2019 12:34,11/15/2019 12:38,0,2064.0667,2064.0667,1,Horizontal,-4,151,0.859,0,0,months3
02d10aa2ee456550830fd62e02,8/21/2019 12:34,11/15/2019 12:38,0,2064.0667,2064.0667,1,Horizontal,-10,152,7.155,0,0,months3
02d10aa2ee456550830fd62e02,8/21/2019 12:34,11/15/2019 12:38,0,2064.0667,2064.0667,1,Horizontal,2,153,10.517,1,0,months3
02d10aa2ee456550830fd62e02,8/21/2019 12:34,11/15/2019 12:38,0,2064.0667,2064.0667,1,Vertical,0,154,1.232,0,0,months3
02d10aa2ee456550830fd62e02,8/21/2019 12:34,11/15/2019 12:38,0,2064.0667,2064.0667,1,Vertical,-8,155,0.626,0,0,months3
02d10aa2ee456550830fd62e02,8/21/2019 12:34,11/15/2019 12:38,0,2064.0667,2064.0667,1,Vertical,2,156,16.537,1,0,months3
02d10aa2ee456550830fd62e02,8/21/2019 12:34,11/15/2019 12:38,0,2064.0667,2064.0667,1,Horizontal,0,157,0.873,0,0,months3
02d10aa2ee456550830fd62e02,8/21/2019 12:34,11/15/2019 12:38,0,2064.0667,2064.0667,1,Horizontal,4,158,6.616,1,0,months3
02d10aa2ee456550830fd62e02,8/21/2019 12:34,11/15/2019 12:38,0,2064.0667,2064.0667,1,Horizontal,-2,159,0.72,0,0,months3
02d10aa2ee456550830fd62e02,8/21/2019 12:34,11/15/2019 12:38,0,2064.0667,2064.0667,1,Vertical,8,160,0.683,1,0,months3
02d10aa2ee456550830fd62e02,8/21/2019 12:34,11/15/2019 12:38,0,2064.0667,2064.0667,1,Vertical,-6,161,0.703,0,0,months3
02d10aa2ee456550830fd62e02,8/21/2019 12:34,11/15/2019 12:38,0,2064.0667,2064.0667,1,Vertical,-4,162,0.61,0,0,months3
02d10aa2ee456550830fd62e02,8/21/2019 12:34,11/15/2019 12:38,0,2064.0667,2064.0667,1,Horizontal,2,163,18.333,1,0,months3
02d10aa2ee456550830fd62e02,8/21/2019 12:34,11/15/2019 12:38,0,2064.0667,2064.0667,1,Horizontal,8,164,0.514,1,0,months3
02d10aa2ee456550830fd62e02,8/21/2019 12:34,11/15/2019 12:38,0,2064.0667,2064.0667,1,Horizontal,-8,165,0.473,0,0,months3
02d10aa2ee456550830fd62e02,8/21/2019 12:34,11/15/2019 12:38,0,2064.0667,2064.0667,1,Vertical,-10,166,13.595,0,0,months3
02d10aa2ee456550830fd62e02,8/21/2019 12:34,11/15/2019 12:38,0,2064.0667,2064.0667,1,Vertical,10,167,0.57,1,0,months3
02d10aa2ee456550830fd62e02,8/21/2019 12:34,11/15/2019 12:38,0,2064.0667,2064.0667,1,Vertical,-4,168,0.5,0,0,months3
02d10aa2ee456550830fd62e02,8/21/2019 12:34,11/15/2019 12:38,0,2064.0667,2064.0667,1,Horizontal,8,169,3.743,1,0,months3
02d10aa2ee456550830fd62e02,8/21/2019 12:34,11/15/2019 12:38,0,2064.0667,2064.0667,1,Horizontal,8,170,2.369,1,0,months3
02d10aa2ee456550830fd62e02,8/21/2019 12:34,11/15/2019 12:38,0,2064.0667,2064.0667,1,Horizontal,-8,171,0.542,0,0,months3
02d10aa2ee456550830fd62e02,8/21/2019 12:34,11/15/2019 12:38,0,2064.0667,2064.0667,1,Vertical,0,172,0.466,1,0,months3
02d10aa2ee456550830fd62e02,8/21/2019 12:34,11/15/2019 12:38,0,2064.0667,2064.0667,1,Vertical,8,173,0.505,1,0,months3
02d10aa2ee456550830fd62e02,8/21/2019 12:34,11/15/2019 12:38,0,2064.0667,2064.0667,1,Vertical,-2,174,0.477,0,0,months3
02d10aa2ee456550830fd62e02,8/21/2019 12:34,11/15/2019 12:38,0,2064.0667,2064.0667,1,Horizontal,0,175,7.97,0,0,months3
02d10aa2ee456550830fd62e02,8/21/2019 12:34,11/15/2019 12:38,0,2064.0667,2064.0667,1,Horizontal,-8,176,6.532,0,0,months3
02d10aa2ee456550830fd62e02,8/21/2019 12:34,11/15/2019 12:38,0,2064.0667,2064.0667,1,Horizontal,-4,177,0.615,0,0,months3
02d10aa2ee456550830fd62e02,8/21/2019 12:34,11/15/2019 12:38,0,2064.0667,2064.0667,1,Vertical,8,178,1.028,1,0,months3
02d10aa2ee456550830fd62e02,8/21/2019 12:34,11/15/2019 12:38,0,2064.0667,2064.0667,1,Vertical,-8,179,9.486,0,0,months3
02d10aa2ee456550830fd62e02,8/21/2019 12:34,11/15/2019 12:38,0,2064.0667,2064.0667,1,Vertical,2,180,0.824,1,0,months3
02d10aa2ee456550830fd62e02,8/21/2019 12:34,11/15/2019 12:38,0,2064.0667,2064.0667,1,Horizontal,10,181,32.198,1,0,months3
02d10aa2ee456550830fd62e02,8/21/2019 12:34,11/15/2019 12:38,0,2064.0667,2064.0667,1,Horizontal,-6,182,0.963,0,0,months3
02d10aa2ee456550830fd62e02,8/21/2019 12:34,11/15/2019 12:38,0,2064.0667,2064.0667,1,Horizontal,4,183,0.589,1,0,months3
02d10aa2ee456550830fd62e02,8/21/2019 12:34,11/15/2019 12:38,0,2064.0667,2064.0667,1,Vertical,-6,184,0.846,0,0,months3
02d10aa2ee456550830fd62e02,8/21/2019 12:34,11/15/2019 12:38,0,2064.0667,2064.0667,1,Vertical,-6,185,0.505,0,0,months3
02d10aa2ee456550830fd62e02,8/21/2019 12:34,11/15/2019 12:38,0,2064.0667,2064.0667,1,Vertical,-10,186,0.514,0,0,months3
02d10aa2ee456550830fd62e02,8/21/2019 12:34,11/15/2019 12:38,0,2064.0667,2064.0667,1,Horizontal,8,187,0.474,1,0,months3
02d10aa2ee456550830fd62e02,8/21/2019 12:34,11/15/2019 12:38,0,2064.0667,2064.0667,1,Horizontal,-6,188,0.494,0,0,months3
02d10aa2ee456550830fd62e02,8/21/2019 12:34,11/15/2019 12:38,0,2064.0667,2064.0667,1,Horizontal,-6,189,0.568,0,0,months3
02d10aa2ee456550830fd62e02,8/21/2019 12:34,11/15/2019 12:38,0,2064.0667,2064.0667,1,Vertical,0,190,1.985,0,0,months3
02d10aa2ee456550830fd62e02,8/21/2019 12:34,11/15/2019 12:38,0,2064.0667,2064.0667,1,Vertical,6,191,0.628,1,0,months3
02d10aa2ee456550830fd62e02,8/21/2019 12:34,11/15/2019 12:38,0,2064.0667,2064.0667,1,Vertical,10,192,0.583,1,0,months3
02d10aa2ee456550830fd62e02,8/21/2019 12:34,11/15/2019 12:38,0,2064.0667,2064.0667,1,Horizontal,0,193,0.619,0,0,months3
02d10aa2ee456550830fd62e02,8/21/2019 12:34,11/15/2019 12:38,0,2064.0667,2064.0667,1,Horizontal,6,194,1.456,1,0,months3
02d10aa2ee456550830fd62e02,8/21/2019 12:34,11/15/2019 12:38,0,2064.0667,2064.0667,1,Horizontal,2,195,2.905,1,0,months3
02d10aa2ee456550830fd62e02,8/21/2019 12:34,11/15/2019 12:38,0,2064.0667,2064.0667,1,Vertical,-8,196,0.539,0,0,months3
02d10aa2ee456550830fd62e02,8/21/2019 12:34,11/15/2019 12:38,0,2064.0667,2064.0667,1,Vertical,-4,197,5.001,0,0,months3
02d10aa2ee456550830fd62e02,8/21/2019 12:34,11/15/2019 12:38,0,2064.0667,2064.0667,1,Vertical,8,198,21.206,1,0,months3
02d10aa2ee456550830fd62e02,8/21/2019 12:34,11/15/2019 12:38,0,2064.0667,2064.0667,1,Horizontal,0,199,4.844,0,0,months3
02d10aa2ee456550830fd62e02,8/21/2019 12:34,11/15/2019 12:38,0,2064.0667,2064.0667,1,Horizontal,-10,200,0.517,0,0,months3
02d10aa2ee456550830fd62e02,8/21/2019 12:34,11/15/2019 12:38,0,2064.0667,2064.0667,1,Horizontal,-8,201,0.506,0,0,months3
02d10aa2ee456550830fd62e02,8/21/2019 12:34,11/15/2019 12:38,0,2064.0667,2064.0667,1,Vertical,-8,202,1.227,0,0,months3
02d10aa2ee456550830fd62e02,8/21/2019 12:34,11/15/2019 12:38,0,2064.0667,2064.0667,1,Vertical,4,203,0.794,1,0,months3
02d10aa2ee456550830fd62e02,8/21/2019 12:34,11/15/2019 12:38,0,2064.0667,2064.0667,1,Vertical,4,204,0.792,1,0,months3
02d10aa2ee456550830fd62e02,8/21/2019 12:34,11/15/2019 12:38,0,2064.0667,2064.0667,1,Horizontal,0,205,2.707,1,0,months3
02d10aa2ee456550830fd62e02,8/21/2019 12:34,11/15/2019 12:38,0,2064.0667,2064.0667,1,Horizontal,10,206,1.789,1,0,months3
02d10aa2ee456550830fd62e02,8/21/2019 12:34,11/15/2019 12:38,0,2064.0667,2064.0667,1,Horizontal,-2,207,1.045,0,0,months3
02d10aa2ee456550830fd62e02,8/21/2019 12:34,11/15/2019 12:38,0,2064.0667,2064.0667,1,Vertical,0,208,0.671,1,0,months3
02d10aa2ee456550830fd62e02,8/21/2019 12:34,11/15/2019 12:38,0,2064.0667,2064.0667,1,Vertical,4,209,0.778,1,0,months3
02d10aa2ee456550830fd62e02,8/21/2019 12:34,11/15/2019 12:38,0,2064.0667,2064.0667,1,Vertical,8,210,0.463,1,0,months3
02d10aa2ee456550830fd62e02,8/21/2019 12:34,11/15/2019 12:38,0,2064.0667,2064.0667,1,Horizontal,6,211,3.137,1,0,months3
02d10aa2ee456550830fd62e02,8/21/2019 12:34,11/15/2019 12:38,0,2064.0667,2064.0667,1,Horizontal,-8,212,18.329,0,0,months3
02d10aa2ee456550830fd62e02,8/21/2019 12:34,11/15/2019 12:38,0,2064.0667,2064.0667,1,Horizontal,-10,213,41.355,0,0,months3
02d10aa2ee456550830fd62e02,8/21/2019 12:34,11/15/2019 12:38,0,2064.0667,2064.0667,1,Vertical,0,214,5.577,0,0,months3
02d10aa2ee456550830fd62e02,8/21/2019 12:34,11/15/2019 12:38,0,2064.0667,2064.0667,1,Vertical,10,215,0.755,1,0,months3
02d10aa2ee456550830fd62e02,8/21/2019 12:34,11/15/2019 12:38,0,2064.0667,2064.0667,1,Vertical,4,216,1.605,1,0,months3
02d10aa2ee456550830fd62e02,8/21/2019 12:34,11/15/2019 12:38,0,2064.0667,2064.0667,1,Horizontal,0,217,3.215,1,0,months3
02d10aa2ee456550830fd62e02,8/21/2019 12:34,11/15/2019 12:38,0,2064.0667,2064.0667,1,Horizontal,-4,218,1.086,0,0,months3
02d10aa2ee456550830fd62e02,8/21/2019 12:34,11/15/2019 12:38,0,2064.0667,2064.0667,1,Horizontal,10,219,0.547,1,0,months3
02d10aa2ee456550830fd62e02,8/21/2019 12:34,11/15/2019 12:38,0,2064.0667,2064.0667,1,Vertical,2,220,1.838,1,0,months3
02d10aa2ee456550830fd62e02,8/21/2019 12:34,11/15/2019 12:38,0,2064.0667,2064.0667,1,Vertical,-4,221,0.59,0,0,months3
02d10aa2ee456550830fd62e02,8/21/2019 12:34,11/15/2019 12:38,0,2064.0667,2064.0667,1,Vertical,-2,222,0.602,0,0,months3
02d10aa2ee456550830fd62e02,8/21/2019 12:34,11/15/2019 12:38,0,2064.0667,2064.0667,1,Horizontal,0,223,3.106,1,0,months3
02d10aa2ee456550830fd62e02,8/21/2019 12:34,11/15/2019 12:38,0,2064.0667,2064.0667,1,Horizontal,10,224,0.559,1,0,months3
02d10aa2ee456550830fd62e02,8/21/2019 12:34,11/15/2019 12:38,0,2064.0667,2064.0667,1,Horizontal,-10,225,0.622,0,0,months3
02d10aa2ee456550830fd62e02,8/21/2019 12:34,11/15/2019 12:38,0,2064.0667,2064.0667,1,Vertical,0,226,4.075,1,0,months3
02d10aa2ee456550830fd62e02,8/21/2019 12:34,11/15/2019 12:38,0,2064.0667,2064.0667,1,Vertical,6,227,0.628,1,0,months3
02d10aa2ee456550830fd62e02,8/21/2019 12:34,11/15/2019 12:38,0,2064.0667,2064.0667,1,Vertical,6,228,0.684,1,0,months3
02d10aa2ee456550830fd62e02,8/21/2019 12:34,11/15/2019 12:38,0,2064.0667,2064.0667,1,Horizontal,-10,229,0.591,0,0,months3
02d10aa2ee456550830fd62e02,8/21/2019 12:34,11/15/2019 12:38,0,2064.0667,2064.0667,1,Horizontal,10,230,0.515,1,0,months3
02d10aa2ee456550830fd62e02,8/21/2019 12:34,11/15/2019 12:38,0,2064.0667,2064.0667,1,Horizontal,4,231,0.522,1,0,months3
02d10aa2ee456550830fd62e02,8/21/2019 12:34,11/15/2019 12:38,0,2064.0667,2064.0667,1,Vertical,0,232,2.068,1,0,months3
02d10aa2ee456550830fd62e02,8/21/2019 12:34,11/15/2019 12:38,0,2064.0667,2064.0667,1,Vertical,-6,233,0.673,0,0,months3
02d10aa2ee456550830fd62e02,8/21/2019 12:34,11/15/2019 12:38,0,2064.0667,2064.0667,1,Vertical,-2,234,5.014,0,0,months3
02d10aa2ee456550830fd62e02,8/21/2019 12:34,11/15/2019 12:38,0,2064.0667,2064.0667,1,Horizontal,-2,235,0.558,0,0,months3
02d10aa2ee456550830fd62e02,8/21/2019 12:34,11/15/2019 12:38,0,2064.0667,2064.0667,1,Horizontal,-4,236,0.533,0,0,months3
02d10aa2ee456550830fd62e02,8/21/2019 12:34,11/15/2019 12:38,0,2064.0667,2064.0667,1,Horizontal,-6,237,0.548,0,0,months3
02d10aa2ee456550830fd62e02,8/21/2019 12:34,11/15/2019 12:38,0,2064.0667,2064.0667,1,Vertical,-10,238,0.769,0,0,months3
02d10aa2ee456550830fd62e02,8/21/2019 12:34,11/15/2019 12:38,0,2064.0667,2064.0667,1,Vertical,10,239,0.619,1,0,months3
02d10aa2ee456550830fd62e02,8/21/2019 12:34,11/15/2019 12:38,0,2064.0667,2064.0667,1,Vertical,-10,240,0.571,0,0,months3
02d10aa2ee456550830fd62e02,8/21/2019 12:34,11/15/2019 12:38,0,2064.0667,2064.0667,1,Horizontal,10,241,2.117,1,0,months3
02d10aa2ee456550830fd62e02,8/21/2019 12:34,11/15/2019 12:38,0,2064.0667,2064.0667,1,Horizontal,-6,242,0.681,0,0,months3
02d10aa2ee456550830fd62e02,8/21/2019 12:34,11/15/2019 12:38,0,2064.0667,2064.0667,1,Horizontal,-10,243,0.408,0,0,months3
02d10aa2ee456550830fd62e02,8/21/2019 12:34,11/15/2019 12:38,0,2064.0667,2064.0667,1,Vertical,-4,244,1.175,0,0,months3
02d10aa2ee456550830fd62e02,8/21/2019 12:34,11/15/2019 12:38,0,2064.0667,2064.0667,1,Vertical,10,245,0.626,1,0,months3
02d10aa2ee456550830fd62e02,8/21/2019 12:34,11/15/2019 12:38,0,2064.0667,2064.0667,1,Vertical,-10,246,0.607,0,0,months3
02d10aa2ee456550830fd62e02,8/21/2019 12:34,11/15/2019 12:38,0,2064.0667,2064.0667,1,Horizontal,0,247,2.667,1,0,months3
02d10aa2ee456550830fd62e02,8/21/2019 12:34,11/15/2019 12:38,0,2064.0667,2064.0667,1,Horizontal,-4,248,0.632,0,0,months3
02d10aa2ee456550830fd62e02,8/21/2019 12:34,11/15/2019 12:38,0,2064.0667,2064.0667,1,Horizontal,-2,249,1.08,0,0,months3
02d10aa2ee456550830fd62e02,8/21/2019 12:34,11/15/2019 12:38,0,2064.0667,2064.0667,1,Vertical,2,250,1.316,0,0,months3
02d10aa2ee456550830fd62e02,8/21/2019 12:34,11/15/2019 12:38,0,2064.0667,2064.0667,1,Vertical,-4,251,1.369,0,0,months3
02d10aa2ee456550830fd62e02,8/21/2019 12:34,11/15/2019 12:38,0,2064.0667,2064.0667,1,Vertical,6,252,0.99,1,0,months3
02d10aa2ee456550830fd62e02,8/21/2019 12:34,11/15/2019 12:38,0,2064.0667,2064.0667,1,Horizontal,0,253,1.617,1,0,months3
02d10aa2ee456550830fd62e02,8/21/2019 12:34,11/15/2019 12:38,0,2064.0667,2064.0667,1,Horizontal,-2,254,1.248,0,0,months3
02d10aa2ee456550830fd62e02,8/21/2019 12:34,11/15/2019 12:38,0,2064.0667,2064.0667,1,Horizontal,10,255,0.486,1,0,months3
02d10aa2ee456550830fd62e02,8/21/2019 12:34,11/15/2019 12:38,0,2064.0667,2064.0667,1,Vertical,0,256,2.411,1,0,months3
02d10aa2ee456550830fd62e02,8/21/2019 12:34,11/15/2019 12:38,0,2064.0667,2064.0667,1,Vertical,2,257,1.832,1,0,months3
02d10aa2ee456550830fd62e02,8/21/2019 12:34,11/15/2019 12:38,0,2064.0667,2064.0667,1,Vertical,-10,258,0.515,0,0,months3
02d10aa2ee456550830fd62e02,8/21/2019 12:34,11/15/2019 12:38,0,2064.0667,2064.0667,1,Horizontal,4,259,0.546,1,0,months3
02d10aa2ee456550830fd62e02,8/21/2019 12:34,11/15/2019 12:38,0,2064.0667,2064.0667,1,Horizontal,-8,260,0.496,0,0,months3
02d10aa2ee456550830fd62e02,8/21/2019 12:34,11/15/2019 12:38,0,2064.0667,2064.0667,1,Horizontal,4,261,0.457,1,0,months3
02d10aa2ee456550830fd62e02,8/21/2019 12:34,11/15/2019 12:38,0,2064.0667,2064.0667,1,Vertical,6,262,0.689,1,0,months3
02d10aa2ee456550830fd62e02,8/21/2019 12:34,11/15/2019 12:38,0,2064.0667,2064.0667,1,Vertical,10,263,0.784,1,0,months3
02d10aa2ee456550830fd62e02,8/21/2019 12:34,11/15/2019 12:38,0,2064.0667,2064.0667,1,Vertical,-2,264,1.25,0,0,months3
02d10aa2ee456550830fd62e02,8/21/2019 12:34,11/15/2019 12:38,0,2064.0667,2064.0667,1,Horizontal,0,265,6.014,1,0,months3
02d10aa2ee456550830fd62e02,8/21/2019 12:34,11/15/2019 12:38,0,2064.0667,2064.0667,1,Horizontal,4,266,5.694,1,0,months3
02d10aa2ee456550830fd62e02,8/21/2019 12:34,11/15/2019 12:38,0,2064.0667,2064.0667,1,Horizontal,-4,267,0.513,0,0,months3
02d10aa2ee456550830fd62e02,8/21/2019 12:34,11/15/2019 12:38,0,2064.0667,2064.0667,1,Vertical,0,268,1.202,0,0,months3
02d10aa2ee456550830fd62e02,8/21/2019 12:34,11/15/2019 12:38,0,2064.0667,2064.0667,1,Vertical,-2,269,1.66,0,0,months3
02d10aa2ee456550830fd62e02,8/21/2019 12:34,11/15/2019 12:38,0,2064.0667,2064.0667,1,Vertical,4,270,0.508,1,0,months3
02d10aa2ee456550830fd62e02,8/21/2019 12:34,11/15/2019 12:38,0,2064.0667,2064.0667,1,Horizontal,-8,271,1.26,0,0,months3
02d10aa2ee456550830fd62e02,8/21/2019 12:34,11/15/2019 12:38,0,2064.0667,2064.0667,1,Horizontal,-8,272,3.4,0,0,months3
02d10aa2ee456550830fd62e02,8/21/2019 12:34,11/15/2019 12:38,0,2064.0667,2064.0667,1,Horizontal,6,273,0.556,1,0,months3
02d10aa2ee456550830fd62e02,8/21/2019 12:34,11/15/2019 12:38,0,2064.0667,2064.0667,1,Vertical,-10,274,0.676,0,0,months3
02d10aa2ee456550830fd62e02,8/21/2019 12:34,11/15/2019 12:38,0,2064.0667,2064.0667,1,Vertical,2,275,1.132,1,0,months3
02d10aa2ee456550830fd62e02,8/21/2019 12:34,11/15/2019 12:38,0,2064.0667,2064.0667,1,Vertical,-2,276,1.415,0,0,months3
02d10aa2ee456550830fd62e02,8/21/2019 12:34,11/15/2019 12:38,0,2064.0667,2064.0667,1,Horizontal,0,277,3.751,1,0,months3
02d10aa2ee456550830fd62e02,8/21/2019 12:34,11/15/2019 12:38,0,2064.0667,2064.0667,1,Horizontal,-4,278,1,0,0,months3
02d10aa2ee456550830fd62e02,8/21/2019 12:34,11/15/2019 12:38,0,2064.0667,2064.0667,1,Horizontal,-6,279,0.574,0,0,months3
02d10aa2ee456550830fd62e02,8/21/2019 12:34,11/15/2019 12:38,0,2064.0667,2064.0667,1,Vertical,0,280,3.915,0,0,months3
02d10aa2ee456550830fd62e02,8/21/2019 12:34,11/15/2019 12:38,0,2064.0667,2064.0667,1,Vertical,10,281,0.66,1,0,months3
02d10aa2ee456550830fd62e02,8/21/2019 12:34,11/15/2019 12:38,0,2064.0667,2064.0667,1,Vertical,-4,282,0.925,0,0,months3
02d10aa2ee456550830fd62e02,8/21/2019 12:34,11/15/2019 12:38,0,2064.0667,2064.0667,1,Horizontal,4,283,0.52,1,0,months3
02d10aa2ee456550830fd62e02,8/21/2019 12:34,11/15/2019 12:38,0,2064.0667,2064.0667,1,Horizontal,6,284,0.495,1,0,months3
02d10aa2ee456550830fd62e02,8/21/2019 12:34,11/15/2019 12:38,0,2064.0667,2064.0667,1,Horizontal,10,285,0.443,1,0,months3
02d10aa2ee456550830fd62e02,8/21/2019 12:34,11/15/2019 12:38,0,2064.0667,2064.0667,1,Vertical,0,286,1.432,0,0,months3
02d10aa2ee456550830fd62e02,8/21/2019 12:34,11/15/2019 12:38,0,2064.0667,2064.0667,1,Vertical,-8,287,0.569,0,0,months3
02d10aa2ee456550830fd62e02,8/21/2019 12:34,11/15/2019 12:38,0,2064.0667,2064.0667,1,Vertical,8,288,0.613,1,0,months3
02d10aa2ee456550830fd62e02,8/21/2019 12:34,11/15/2019 12:38,0,2064.0667,2064.0667,1,Horizontal,0,289,1.775,1,0,months3
02d10aa2ee456550830fd62e02,8/21/2019 12:34,11/15/2019 12:38,0,2064.0667,2064.0667,1,Horizontal,2,290,1.4,1,0,months3
02d10aa2ee456550830fd62e02,8/21/2019 12:34,11/15/2019 12:38,0,2064.0667,2064.0667,1,Horizontal,-2,291,1.938,0,0,months3
02d10aa2ee456550830fd62e02,8/21/2019 12:34,11/15/2019 12:38,0,2064.0667,2064.0667,1,Vertical,4,292,2.24,1,0,months3
02d10aa2ee456550830fd62e02,8/21/2019 12:34,11/15/2019 12:38,0,2064.0667,2064.0667,1,Vertical,-6,293,0.941,0,0,months3
02d10aa2ee456550830fd62e02,8/21/2019 12:34,11/15/2019 12:38,0,2064.0667,2064.0667,1,Vertical,4,294,0.818,1,0,months3
02d10aa2ee456550830fd62e02,8/21/2019 12:34,11/15/2019 12:38,0,2064.0667,2064.0667,1,Horizontal,-2,295,1.214,0,0,months3
02d10aa2ee456550830fd62e02,8/21/2019 12:34,11/15/2019 12:38,0,2064.0667,2064.0667,1,Horizontal,-8,296,0.513,0,0,months3
02d10aa2ee456550830fd62e02,8/21/2019 12:34,11/15/2019 12:38,0,2064.0667,2064.0667,1,Horizontal,2,297,0.77,1,0,months3
02d10aa2ee456550830fd62e02,8/21/2019 12:34,11/15/2019 12:38,0,2064.0667,2064.0667,1,Vertical,0,298,1.444,1,0,months3
02d10aa2ee456550830fd62e02,8/21/2019 12:34,11/15/2019 12:38,0,2064.0667,2064.0667,1,Vertical,4,299,1.456,1,0,months3
02d10aa2ee456550830fd62e02,8/21/2019 12:34,11/15/2019 12:38,0,2064.0667,2064.0667,1,Vertical,6,300,1.038,1,0,months3
02d10aa2ee456550830fd62e02,8/21/2019 12:34,11/15/2019 12:38,0,2064.0667,2064.0667,1,Horizontal,0,301,30.973,1,0,months3
02d10aa2ee456550830fd62e02,8/21/2019 12:34,11/15/2019 12:38,0,2064.0667,2064.0667,1,Horizontal,6,302,0.985,1,0,months3
02d10aa2ee456550830fd62e02,8/21/2019 12:34,11/15/2019 12:38,0,2064.0667,2064.0667,1,Horizontal,8,303,0.618,1,0,months3
02d10aa2ee456550830fd62e02,8/21/2019 12:34,11/15/2019 12:38,0,2064.0667,2064.0667,1,Vertical,0,304,1.617,0,0,months3
02d10aa2ee456550830fd62e02,8/21/2019 12:34,11/15/2019 12:38,0,2064.0667,2064.0667,1,Vertical,8,305,0.605,1,0,months3
02d10aa2ee456550830fd62e02,8/21/2019 12:34,11/15/2019 12:38,0,2064.0667,2064.0667,1,Vertical,8,306,0.579,1,0,months3
02d10aa2ee456550830fd62e02,8/21/2019 12:34,11/15/2019 12:38,0,2064.0667,2064.0667,1,Horizontal,0,307,3.19,1,0,months3
02d10aa2ee456550830fd62e02,8/21/2019 12:34,11/15/2019 12:38,0,2064.0667,2064.0667,1,Horizontal,-10,308,1.995,0,0,months3
02d10aa2ee456550830fd62e02,8/21/2019 12:34,11/15/2019 12:38,0,2064.0667,2064.0667,1,Horizontal,10,309,0.487,1,0,months3
02d10aa2ee456550830fd62e02,8/21/2019 12:34,11/15/2019 12:38,0,2064.0667,2064.0667,1,Vertical,-6,310,1.107,0,0,months3
02d10aa2ee456550830fd62e02,8/21/2019 12:34,11/15/2019 12:38,0,2064.0667,2064.0667,1,Vertical,-8,311,0.865,0,0,months3
02d10aa2ee456550830fd62e02,8/21/2019 12:34,11/15/2019 12:38,0,2064.0667,2064.0667,1,Vertical,-2,312,1.386,1,0,months3
02d10aa2ee456550830fd62e02,8/21/2019 12:34,11/15/2019 12:38,0,2064.0667,2064.0667,1,Horizontal,8,313,0.43,1,0,months3
02d10aa2ee456550830fd62e02,8/21/2019 12:34,11/15/2019 12:38,0,2064.0667,2064.0667,1,Horizontal,-8,314,0.548,0,0,months3
02d10aa2ee456550830fd62e02,8/21/2019 12:34,11/15/2019 12:38,0,2064.0667,2064.0667,1,Horizontal,-2,315,0.544,0,0,months3
02d10aa2ee456550830fd62e02,8/21/2019 12:34,11/15/2019 12:38,0,2064.0667,2064.0667,1,Vertical,0,316,1.293,1,0,months3
02d10aa2ee456550830fd62e02,8/21/2019 12:34,11/15/2019 12:38,0,2064.0667,2064.0667,1,Vertical,8,317,0.665,1,0,months3
02d10aa2ee456550830fd62e02,8/21/2019 12:34,11/15/2019 12:38,0,2064.0667,2064.0667,1,Vertical,-8,318,0.619,0,0,months3
02d10aa2ee456550830fd62e02,8/21/2019 12:34,11/15/2019 12:38,0,2064.0667,2064.0667,1,Horizontal,-6,319,0.358,0,0,months3
02d10aa2ee456550830fd62e02,8/21/2019 12:34,11/15/2019 12:38,0,2064.0667,2064.0667,1,Horizontal,2,320,0.458,1,0,months3
02d10aa2ee456550830fd62e02,8/21/2019 12:34,11/15/2019 12:38,0,2064.0667,2064.0667,1,Horizontal,6,321,0.883,1,0,months3
02d10aa2ee456550830fd62e02,8/21/2019 12:34,11/15/2019 12:38,0,2064.0667,2064.0667,1,Vertical,-10,322,0.502,0,0,months3
02d10aa2ee456550830fd62e02,8/21/2019 12:34,11/15/2019 12:38,0,2064.0667,2064.0667,1,Vertical,2,323,0.738,1,0,months3
02d10aa2ee456550830fd62e02,8/21/2019 12:34,11/15/2019 12:38,0,2064.0667,2064.0667,1,Vertical,2,324,1.235,1,0,months3
02d10aa2ee456550830fd62e02,8/21/2019 12:34,11/15/2019 12:38,0,2064.0667,2064.0667,1,Horizontal,0,325,1.081,0,0,months3
02d10aa2ee456550830fd62e02,8/21/2019 12:34,11/15/2019 12:38,0,2064.0667,2064.0667,1,Horizontal,8,326,1.096,1,0,months3
02d10aa2ee456550830fd62e02,8/21/2019 12:34,11/15/2019 12:38,0,2064.0667,2064.0667,1,Horizontal,-4,327,0.531,0,0,months3
02d10aa2ee456550830fd62e02,8/21/2019 12:34,11/15/2019 12:38,0,2064.0667,2064.0667,1,Vertical,0,328,1.322,0,0,months3
02d10aa2ee456550830fd62e02,8/21/2019 12:34,11/15/2019 12:38,0,2064.0667,2064.0667,1,Vertical,6,329,0.407,1,0,months3
02d10aa2ee456550830fd62e02,8/21/2019 12:34,11/15/2019 12:38,0,2064.0667,2064.0667,1,Vertical,6,330,0.58,1,0,months3
02d10aa2ee456550830fd62e02,8/21/2019 12:34,11/15/2019 12:38,0,2064.0667,2064.0667,1,Horizontal,0,331,4.552,0,0,months3
02d10aa2ee456550830fd62e02,8/21/2019 12:34,11/15/2019 12:38,0,2064.0667,2064.0667,1,Horizontal,-6,332,1.397,0,0,months3
02d10aa2ee456550830fd62e02,8/21/2019 12:34,11/15/2019 12:38,0,2064.0667,2064.0667,1,Horizontal,8,333,0.572,1,0,months3
02d10aa2ee456550830fd62e02,8/21/2019 12:34,11/15/2019 12:38,0,2064.0667,2064.0667,1,Vertical,-6,334,1.098,0,0,months3
02d10aa2ee456550830fd62e02,8/21/2019 12:34,11/15/2019 12:38,0,2064.0667,2064.0667,1,Vertical,-10,335,0.543,0,0,months3
02d10aa2ee456550830fd62e02,8/21/2019 12:34,11/15/2019 12:38,0,2064.0667,2064.0667,1,Vertical,-8,336,0.591,0,0,months3
02d10aa2ee456550830fd62e02,8/21/2019 12:34,11/15/2019 12:38,0,2064.0667,2064.0667,1,Horizontal,-4,337,0.67,0,0,months3
02d10aa2ee456550830fd62e02,8/21/2019 12:34,11/15/2019 12:38,0,2064.0667,2064.0667,1,Horizontal,-10,338,0.959,0,0,months3
02d10aa2ee456550830fd62e02,8/21/2019 12:34,11/15/2019 12:38,0,2064.0667,2064.0667,1,Horizontal,2,339,0.373,1,0,months3
02d10aa2ee456550830fd62e02,8/21/2019 12:34,11/15/2019 12:38,0,2064.0667,2064.0667,1,Vertical,0,340,0.519,0,0,months3
02d10aa2ee456550830fd62e02,8/21/2019 12:34,11/15/2019 12:38,0,2064.0667,2064.0667,1,Vertical,-4,341,0.64,0,0,months3
02d10aa2ee456550830fd62e02,8/21/2019 12:34,11/15/2019 12:38,0,2064.0667,2064.0667,1,Vertical,-4,342,0.589,0,0,months3
02d10aa2ee456550830fd62e02,8/21/2019 12:34,11/15/2019 12:38,0,2064.0667,2064.0667,1,Horizontal,4,343,0.384,1,0,months3
02d10aa2ee456550830fd62e02,8/21/2019 12:34,11/15/2019 12:38,0,2064.0667,2064.0667,1,Horizontal,-6,344,0.43,0,0,months3
02d10aa2ee456550830fd62e02,8/21/2019 12:34,11/15/2019 12:38,0,2064.0667,2064.0667,1,Horizontal,-10,345,0.458,0,0,months3
02d10aa2ee456550830fd62e02,8/21/2019 12:34,11/15/2019 12:38,0,2064.0667,2064.0667,1,Vertical,-6,346,0.348,0,0,months3
02d10aa2ee456550830fd62e02,8/21/2019 12:34,11/15/2019 12:38,0,2064.0667,2064.0667,1,Vertical,8,347,0.612,1,0,months3
02d10aa2ee456550830fd62e02,8/21/2019 12:34,11/15/2019 12:38,0,2064.0667,2064.0667,1,Vertical,4,348,0.748,1,0,months3
02d10aa2ee456550830fd62e02,8/21/2019 12:34,11/15/2019 12:38,0,2064.0667,2064.0667,1,Horizontal,2,349,0.444,1,0,months3
02d10aa2ee456550830fd62e02,8/21/2019 12:34,11/15/2019 12:38,0,2064.0667,2064.0667,1,Horizontal,8,350,0.474,1,0,months3
02d10aa2ee456550830fd62e02,8/21/2019 12:34,11/15/2019 12:38,0,2064.0667,2064.0667,1,Horizontal,-10,351,0.474,0,0,months3
02d10aa2ee456550830fd62e02,8/21/2019 12:34,11/15/2019 12:38,0,2064.0667,2064.0667,1,Vertical,-8,352,1.376,0,0,months3
02d10aa2ee456550830fd62e02,8/21/2019 12:34,11/15/2019 12:38,0,2064.0667,2064.0667,1,Vertical,-2,353,2.056,1,0,months3
02d10aa2ee456550830fd62e02,8/21/2019 12:34,11/15/2019 12:38,0,2064.0667,2064.0667,1,Vertical,-6,354,0.668,0,0,months3
02d10aa2ee456550830fd62e02,8/21/2019 12:34,11/15/2019 12:38,0,2064.0667,2064.0667,1,Horizontal,0,355,3.416,1,0,months3
02d10aa2ee456550830fd62e02,8/21/2019 12:34,11/15/2019 12:38,0,2064.0667,2064.0667,1,Horizontal,10,356,0.444,1,0,months3
02d10aa2ee456550830fd62e02,8/21/2019 12:34,11/15/2019 12:38,0,2064.0667,2064.0667,1,Horizontal,6,357,0.645,1,0,months3
02d10aa2ee456550830fd62e02,8/21/2019 12:34,11/15/2019 12:38,0,2064.0667,2064.0667,1,Vertical,0,358,0.817,1,0,months3
02d10aa2ee456550830fd62e02,8/21/2019 12:34,11/15/2019 12:38,0,2064.0667,2064.0667,1,Vertical,10,359,0.668,1,0,months3
02d10aa2ee456550830fd62e02,8/21/2019 12:34,11/15/2019 12:38,0,2064.0667,2064.0667,1,Vertical,10,360,0.684,1,0,months3
02d10aa2ee456550830fd62e02,8/21/2019 12:34,11/15/2019 12:38,0,2064.0667,2064.0667,1,Horizontal,6,361,1.908,1,0,months3
02d10aa2ee456550830fd62e02,8/21/2019 12:34,11/15/2019 12:38,0,2064.0667,2064.0667,1,Horizontal,-2,362,0.861,0,0,months3
02d10aa2ee456550830fd62e02,8/21/2019 12:34,11/15/2019 12:38,0,2064.0667,2064.0667,1,Horizontal,4,363,0.49,1,0,months3
02d10aa2ee456550830fd62e02,8/21/2019 12:34,11/15/2019 12:38,0,2064.0667,2064.0667,1,Vertical,0,364,1.132,1,0,months3
02d10aa2ee456550830fd62e02,8/21/2019 12:34,11/15/2019 12:38,0,2064.0667,2064.0667,1,Vertical,6,365,0.575,1,0,months3
02d10aa2ee456550830fd62e02,8/21/2019 12:34,11/15/2019 12:38,0,2064.0667,2064.0667,1,Vertical,-6,366,0.504,0,0,months3
02d10aa2ee456550830fd62e02,8/21/2019 12:34,11/15/2019 12:38,0,2064.0667,2064.0667,1,Horizontal,0,367,1.051,0,0,months3
02d10aa2ee456550830fd62e02,8/21/2019 12:34,11/15/2019 12:38,0,2064.0667,2064.0667,1,Horizontal,6,368,0.792,1,0,months3
02d10aa2ee456550830fd62e02,8/21/2019 12:34,11/15/2019 12:38,0,2064.0667,2064.0667,1,Horizontal,6,369,0.539,1,0,months3
02d10aa2ee456550830fd62e02,8/21/2019 12:34,11/15/2019 12:38,0,2064.0667,2064.0667,1,Vertical,-2,370,0.899,0,0,months3
02d10aa2ee456550830fd62e02,8/21/2019 12:34,11/15/2019 12:38,0,2064.0667,2064.0667,1,Vertical,6,371,0.629,1,0,months3
02d10aa2ee456550830fd62e02,8/21/2019 12:34,11/15/2019 12:38,0,2064.0667,2064.0667,1,Vertical,4,372,1.631,1,0,months3
02d10aa2ee456550830fd62e02,8/21/2019 12:34,11/15/2019 12:38,0,2064.0667,2064.0667,1,Horizontal,0,373,5.48,0,0,months3
02d10aa2ee456550830fd62e02,8/21/2019 12:34,11/15/2019 12:38,0,2064.0667,2064.0667,1,Horizontal,-2,374,0.763,0,0,months3
02d10aa2ee456550830fd62e02,8/21/2019 12:34,11/15/2019 12:38,0,2064.0667,2064.0667,1,Horizontal,-4,375,2.455,0,0,months3
02d10aa2ee456550830fd62e02,8/21/2019 12:34,11/15/2019 12:38,0,2064.0667,2064.0667,1,Vertical,0,376,0.894,0,0,months3
02d10aa2ee456550830fd62e02,8/21/2019 12:34,11/15/2019 12:38,0,2064.0667,2064.0667,1,Vertical,2,377,1.143,1,0,months3
02d10aa2ee456550830fd62e02,8/21/2019 12:34,11/15/2019 12:38,0,2064.0667,2064.0667,1,Vertical,10,378,0.423,1,0,months3
02d10aa2ee456550830fd62e02,8/21/2019 12:34,11/15/2019 12:38,0,2064.0667,2064.0667,1,Horizontal,-6,379,0.779,0,0,months3
02d10aa2ee456550830fd62e02,8/21/2019 12:34,11/15/2019 12:38,0,2064.0667,2064.0667,1,Horizontal,8,380,0.838,1,0,months3
02d10aa2ee456550830fd62e02,8/21/2019 12:34,11/15/2019 12:38,0,2064.0667,2064.0667,1,Horizontal,4,381,0.492,1,0,months3
02d10aa2ee456550830fd62e02,8/21/2019 12:34,11/15/2019 12:38,0,2064.0667,2064.0667,1,Vertical,0,382,1.212,0,0,months3
02d10aa2ee456550830fd62e02,8/21/2019 12:34,11/15/2019 12:38,0,2064.0667,2064.0667,1,Vertical,-4,383,0.405,0,0,months3
02d10aa2ee456550830fd62e02,8/21/2019 12:34,11/15/2019 12:38,0,2064.0667,2064.0667,1,Vertical,2,384,0.756,1,0,months3
02d10aa2ee456550830fd62e02,8/21/2019 12:34,11/15/2019 12:38,0,2064.0667,2064.0667,1,Horizontal,0,385,1.201,1,0,months3
02d10aa2ee456550830fd62e02,8/21/2019 12:34,11/15/2019 12:38,0,2064.0667,2064.0667,1,Horizontal,2,386,0.311,0,0,months3
02d10aa2ee456550830fd62e02,8/21/2019 12:34,11/15/2019 12:38,0,2064.0667,2064.0667,1,Horizontal,2,387,0.491,1,0,months3
02d10aa2ee456550830fd62e02,8/21/2019 12:34,11/15/2019 12:38,0,2064.0667,2064.0667,1,Vertical,-8,388,1.008,0,0,months3
02d10aa2ee456550830fd62e02,8/21/2019 12:34,11/15/2019 12:38,0,2064.0667,2064.0667,1,Vertical,-10,389,0.525,0,0,months3
02d10aa2ee456550830fd62e02,8/21/2019 12:34,11/15/2019 12:38,0,2064.0667,2064.0667,1,Vertical,-2,390,0.751,1,0,months3
02d10aa2ee456550830fd62e02,8/21/2019 12:34,11/15/2019 12:38,0,2064.0667,2064.0667,1,Horizontal,-4,391,0.935,0,0,months3
02d10aa2ee456550830fd62e02,8/21/2019 12:34,11/15/2019 12:38,0,2064.0667,2064.0667,1,Horizontal,-10,392,0.424,0,0,months3
02d10aa2ee456550830fd62e02,8/21/2019 12:34,11/15/2019 12:38,0,2064.0667,2064.0667,1,Horizontal,2,393,0.527,1,0,months3
02d10aa2ee456550830fd62e02,8/21/2019 12:34,11/15/2019 12:38,0,2064.0667,2064.0667,1,Vertical,0,394,1.487,0,0,months3
02d10aa2ee456550830fd62e02,8/21/2019 12:34,11/15/2019 12:38,0,2064.0667,2064.0667,1,Vertical,-8,395,0.58,0,0,months3
02d10aa2ee456550830fd62e02,8/21/2019 12:34,11/15/2019 12:38,0,2064.0667,2064.0667,1,Vertical,2,396,1.039,1,0,months3
02d10aa2ee456550830fd62e02,8/21/2019 12:34,11/15/2019 12:38,0,2064.0667,2064.0667,1,Horizontal,0,397,1.616,1,0,months3
02d10aa2ee456550830fd62e02,8/21/2019 12:34,11/15/2019 12:38,0,2064.0667,2064.0667,1,Horizontal,4,398,2.568,1,0,months3
02d10aa2ee456550830fd62e02,8/21/2019 12:34,11/15/2019 12:38,0,2064.0667,2064.0667,1,Horizontal,-2,399,1.46,0,0,months3
02d10aa2ee456550830fd62e02,8/21/2019 12:34,11/15/2019 12:38,0,2064.0667,2064.0667,1,Vertical,8,400,0.616,1,0,months3
02d10aa2ee456550830fd62e02,8/21/2019 12:34,11/15/2019 12:38,0,2064.0667,2064.0667,1,Vertical,-6,401,0.828,0,0,months3
02d10aa2ee456550830fd62e02,8/21/2019 12:34,11/15/2019 12:38,0,2064.0667,2064.0667,1,Vertical,-4,402,0.932,0,0,months3
02d10aa2ee456550830fd62e02,8/21/2019 12:34,11/15/2019 12:38,0,2064.0667,2064.0667,1,Horizontal,2,403,2.969,1,0,months3
02d10aa2ee456550830fd62e02,8/21/2019 12:34,11/15/2019 12:38,0,2064.0667,2064.0667,1,Horizontal,8,404,0.47,1,0,months3
02d10aa2ee456550830fd62e02,8/21/2019 12:34,11/15/2019 12:38,0,2064.0667,2064.0667,1,Horizontal,-8,405,0.511,0,0,months3
02d10aa2ee456550830fd62e02,8/21/2019 12:34,11/15/2019 12:38,0,2064.0667,2064.0667,1,Vertical,-10,406,1.546,0,0,months3
02d10aa2ee456550830fd62e02,8/21/2019 12:34,11/15/2019 12:38,0,2064.0667,2064.0667,1,Vertical,10,407,0.582,1,0,months3
02d10aa2ee456550830fd62e02,8/21/2019 12:34,11/15/2019 12:38,0,2064.0667,2064.0667,1,Vertical,-4,408,0.725,0,0,months3
02d10aa2ee456550830fd62e02,8/21/2019 12:34,11/15/2019 12:38,0,2064.0667,2064.0667,1,Horizontal,8,409,0.424,1,0,months3
02d10aa2ee456550830fd62e02,8/21/2019 12:34,11/15/2019 12:38,0,2064.0667,2064.0667,1,Horizontal,8,410,0.419,1,0,months3
02d10aa2ee456550830fd62e02,8/21/2019 12:34,11/15/2019 12:38,0,2064.0667,2064.0667,1,Horizontal,-8,411,0.411,0,0,months3
02d10aa2ee456550830fd62e02,8/21/2019 12:34,11/15/2019 12:38,0,2064.0667,2064.0667,1,Vertical,0,412,1.227,1,0,months3
02d10aa2ee456550830fd62e02,8/21/2019 12:34,11/15/2019 12:38,0,2064.0667,2064.0667,1,Vertical,8,413,0.365,1,0,months3
02d10aa2ee456550830fd62e02,8/21/2019 12:34,11/15/2019 12:38,0,2064.0667,2064.0667,1,Vertical,-2,414,0.936,0,0,months3
02d10aa2ee456550830fd62e02,8/21/2019 12:34,11/15/2019 12:38,0,2064.0667,2064.0667,1,Horizontal,0,415,1.858,0,0,months3
02d10aa2ee456550830fd62e02,8/21/2019 12:34,11/15/2019 12:38,0,2064.0667,2064.0667,1,Horizontal,-8,416,1.338,0,0,months3
02d10aa2ee456550830fd62e02,8/21/2019 12:34,11/15/2019 12:38,0,2064.0667,2064.0667,1,Horizontal,-4,417,0.795,0,0,months3
02d10aa2ee456550830fd62e02,8/21/2019 12:34,11/15/2019 12:38,0,2064.0667,2064.0667,1,Vertical,8,418,0.638,1,0,months3
02d10aa2ee456550830fd62e02,8/21/2019 12:34,11/15/2019 12:38,0,2064.0667,2064.0667,1,Vertical,-8,419,0.493,0,0,months3
02d10aa2ee456550830fd62e02,8/21/2019 12:34,11/15/2019 12:38,0,2064.0667,2064.0667,1,Vertical,2,420,0.512,1,0,months3
02d10aa2ee456550830fd62e02,8/21/2019 12:34,11/15/2019 12:38,0,2064.0667,2064.0667,1,Horizontal,10,421,2.092,1,0,months3
02d10aa2ee456550830fd62e02,8/21/2019 12:34,11/15/2019 12:38,0,2064.0667,2064.0667,1,Horizontal,-6,422,0.628,0,0,months3
02d10aa2ee456550830fd62e02,8/21/2019 12:34,11/15/2019 12:38,0,2064.0667,2064.0667,1,Horizontal,4,423,0.558,1,0,months3
02d10aa2ee456550830fd62e02,8/21/2019 12:34,11/15/2019 12:38,0,2064.0667,2064.0667,1,Vertical,-6,424,0.687,0,0,months3
02d10aa2ee456550830fd62e02,8/21/2019 12:34,11/15/2019 12:38,0,2064.0667,2064.0667,1,Vertical,-6,425,1.346,0,0,months3
02d10aa2ee456550830fd62e02,8/21/2019 12:34,11/15/2019 12:38,0,2064.0667,2064.0667,1,Vertical,-10,426,0.424,0,0,months3
02d10aa2ee456550830fd62e02,8/21/2019 12:34,11/15/2019 12:38,0,2064.0667,2064.0667,1,Horizontal,8,427,0.391,1,0,months3
02d10aa2ee456550830fd62e02,8/21/2019 12:34,11/15/2019 12:38,0,2064.0667,2064.0667,1,Horizontal,-6,428,0.589,0,0,months3
02d10aa2ee456550830fd62e02,8/21/2019 12:34,11/15/2019 12:38,0,2064.0667,2064.0667,1,Horizontal,-6,429,0.52,0,0,months3
02d10aa2ee456550830fd62e02,8/21/2019 12:34,11/15/2019 12:38,0,2064.0667,2064.0667,1,Vertical,0,430,0.713,1,0,months3
02d10aa2ee456550830fd62e02,8/21/2019 12:34,11/15/2019 12:38,0,2064.0667,2064.0667,1,Vertical,6,431,0.455,1,0,months3
02d10aa2ee456550830fd62e02,8/21/2019 12:34,11/15/2019 12:38,0,2064.0667,2064.0667,1,Vertical,10,432,0.92,1,0,months3
02d10aa2ee456550830fd62e02,8/21/2019 12:34,11/15/2019 12:38,0,2064.0667,2064.0667,1,Horizontal,0,433,3.454,0,0,months3
02d10aa2ee456550830fd62e02,8/21/2019 12:34,11/15/2019 12:38,0,2064.0667,2064.0667,1,Horizontal,6,434,0.49,1,0,months3
02d10aa2ee456550830fd62e02,8/21/2019 12:34,11/15/2019 12:38,0,2064.0667,2064.0667,1,Horizontal,2,435,1.536,1,0,months3
02d10aa2ee456550830fd62e02,8/21/2019 12:34,11/15/2019 12:38,0,2064.0667,2064.0667,1,Vertical,-8,436,0.856,0,0,months3
02d10aa2ee456550830fd62e02,8/21/2019 12:34,11/15/2019 12:38,0,2064.0667,2064.0667,1,Vertical,-4,437,0.43,0,0,months3
02d10aa2ee456550830fd62e02,8/21/2019 12:34,11/15/2019 12:38,0,2064.0667,2064.0667,1,Vertical,8,438,1.48,1,0,months3
02d10aa2ee456550830fd62e02,8/21/2019 12:34,11/15/2019 12:38,0,2064.0667,2064.0667,1,Horizontal,0,439,1.32,1,0,months3
02d10aa2ee456550830fd62e02,8/21/2019 12:34,11/15/2019 12:38,0,2064.0667,2064.0667,1,Horizontal,-10,440,0.457,0,0,months3
02d10aa2ee456550830fd62e02,8/21/2019 12:34,11/15/2019 12:38,0,2064.0667,2064.0667,1,Horizontal,-8,441,0.36,0,0,months3
02d10aa2ee456550830fd62e02,8/21/2019 12:34,11/15/2019 12:38,0,2064.0667,2064.0667,1,Vertical,-8,442,0.588,0,0,months3
02d10aa2ee456550830fd62e02,8/21/2019 12:34,11/15/2019 12:38,0,2064.0667,2064.0667,1,Vertical,4,443,0.475,1,0,months3
02d10aa2ee456550830fd62e02,8/21/2019 12:34,11/15/2019 12:38,0,2064.0667,2064.0667,1,Vertical,4,444,0.769,1,0,months3
02d10aa2ee456550830fd62e02,8/21/2019 12:34,11/15/2019 12:38,0,2064.0667,2064.0667,1,Horizontal,0,445,2.089,0,0,months3
02d10aa2ee456550830fd62e02,8/21/2019 12:34,11/15/2019 12:38,0,2064.0667,2064.0667,1,Horizontal,10,446,0.595,1,0,months3
02d10aa2ee456550830fd62e02,8/21/2019 12:34,11/15/2019 12:38,0,2064.0667,2064.0667,1,Horizontal,-2,447,0.704,0,0,months3
02d10aa2ee456550830fd62e02,8/21/2019 12:34,11/15/2019 12:38,0,2064.0667,2064.0667,1,Vertical,0,448,1.227,0,0,months3
02d10aa2ee456550830fd62e02,8/21/2019 12:34,11/15/2019 12:38,0,2064.0667,2064.0667,1,Vertical,4,449,0.395,1,0,months3
02d10aa2ee456550830fd62e02,8/21/2019 12:34,11/15/2019 12:38,0,2064.0667,2064.0667,1,Vertical,8,450,0.494,1,0,months3
02d10aa2ee456550830fd62e02,8/21/2019 12:34,11/15/2019 12:38,0,2064.0667,2064.0667,1,Horizontal,6,451,1.701,1,0,months3
02d10aa2ee456550830fd62e02,8/21/2019 12:34,11/15/2019 12:38,0,2064.0667,2064.0667,1,Horizontal,-8,452,0.583,0,0,months3
02d10aa2ee456550830fd62e02,8/21/2019 12:34,11/15/2019 12:38,0,2064.0667,2064.0667,1,Horizontal,-10,453,0.473,0,0,months3
02d10aa2ee456550830fd62e02,8/21/2019 12:34,11/15/2019 12:38,0,2064.0667,2064.0667,1,Vertical,0,454,6.225,1,0,months3
02d10aa2ee456550830fd62e02,8/21/2019 12:34,11/15/2019 12:38,0,2064.0667,2064.0667,1,Vertical,10,455,0.858,1,0,months3
02d10aa2ee456550830fd62e02,8/21/2019 12:34,11/15/2019 12:38,0,2064.0667,2064.0667,1,Vertical,4,456,1.198,1,0,months3
02d10aa2ee456550830fd62e02,8/21/2019 12:34,11/15/2019 12:38,0,2064.0667,2064.0667,1,Horizontal,0,457,1.484,0,0,months3
02d10aa2ee456550830fd62e02,8/21/2019 12:34,11/15/2019 12:38,0,2064.0667,2064.0667,1,Horizontal,-4,458,1.128,0,0,months3
02d10aa2ee456550830fd62e02,8/21/2019 12:34,11/15/2019 12:38,0,2064.0667,2064.0667,1,Horizontal,10,459,0.717,1,0,months3
02d10aa2ee456550830fd62e02,8/21/2019 12:34,11/15/2019 12:38,0,2064.0667,2064.0667,1,Vertical,2,460,3.35,1,0,months3
02d10aa2ee456550830fd62e02,8/21/2019 12:34,11/15/2019 12:38,0,2064.0667,2064.0667,1,Vertical,-4,461,3.051,0,0,months3
02d10aa2ee456550830fd62e02,8/21/2019 12:34,11/15/2019 12:38,0,2064.0667,2064.0667,1,Vertical,-2,462,0.782,0,0,months3
02d10aa2ee456550830fd62e02,8/21/2019 12:34,11/15/2019 12:38,0,2064.0667,2064.0667,1,Horizontal,0,463,1,0,0,months3
02d10aa2ee456550830fd62e02,8/21/2019 12:34,11/15/2019 12:38,0,2064.0667,2064.0667,1,Horizontal,10,464,0.434,1,0,months3
02d10aa2ee456550830fd62e02,8/21/2019 12:34,11/15/2019 12:38,0,2064.0667,2064.0667,1,Horizontal,-10,465,0.441,0,0,months3
02d10aa2ee456550830fd62e02,8/21/2019 12:34,11/15/2019 12:38,0,2064.0667,2064.0667,1,Vertical,0,466,3.448,0,0,months3
02d10aa2ee456550830fd62e02,8/21/2019 12:34,11/15/2019 12:38,0,2064.0667,2064.0667,1,Vertical,6,467,0.786,1,0,months3
02d10aa2ee456550830fd62e02,8/21/2019 12:34,11/15/2019 12:38,0,2064.0667,2064.0667,1,Vertical,6,468,0.842,1,0,months3
02d10aa2ee456550830fd62e02,8/21/2019 12:34,11/15/2019 12:38,0,2064.0667,2064.0667,1,Horizontal,-10,469,0.686,0,0,months3
02d10aa2ee456550830fd62e02,8/21/2019 12:34,11/15/2019 12:38,0,2064.0667,2064.0667,1,Horizontal,10,470,0.616,1,0,months3
02d10aa2ee456550830fd62e02,8/21/2019 12:34,11/15/2019 12:38,0,2064.0667,2064.0667,1,Horizontal,4,471,0.578,1,0,months3
02d10aa2ee456550830fd62e02,8/21/2019 12:34,11/15/2019 12:38,0,2064.0667,2064.0667,1,Vertical,0,472,0.62,0,0,months3
02d10aa2ee456550830fd62e02,8/21/2019 12:34,11/15/2019 12:38,0,2064.0667,2064.0667,1,Vertical,-6,473,1.303,0,0,months3
02d10aa2ee456550830fd62e02,8/21/2019 12:34,11/15/2019 12:38,0,2064.0667,2064.0667,1,Vertical,-2,474,1.209,1,0,months3
02d10aa2ee456550830fd62e02,8/21/2019 12:34,11/15/2019 12:38,0,2064.0667,2064.0667,1,Horizontal,-2,475,0.862,0,0,months3
02d10aa2ee456550830fd62e02,8/21/2019 12:34,11/15/2019 12:38,0,2064.0667,2064.0667,1,Horizontal,-4,476,0.713,0,0,months3
02d10aa2ee456550830fd62e02,8/21/2019 12:34,11/15/2019 12:38,0,2064.0667,2064.0667,1,Horizontal,-6,477,0.516,0,0,months3
02d10aa2ee456550830fd62e02,8/21/2019 12:34,11/15/2019 12:38,0,2064.0667,2064.0667,1,Vertical,-10,478,0.885,0,0,months3
02d10aa2ee456550830fd62e02,8/21/2019 12:34,11/15/2019 12:38,0,2064.0667,2064.0667,1,Vertical,10,479,0.745,1,0,months3
02d10aa2ee456550830fd62e02,8/21/2019 12:34,11/15/2019 12:38,0,2064.0667,2064.0667,1,Vertical,-10,480,0.694,0,0,months3
09a8e677404fe1908a1880b2f4,8/21/2019 13:09,11/16/2019 21:36,0,2096.4333,2096.4333,1,Horizontal,10,1,1.202,1,1,months3
09a8e677404fe1908a1880b2f4,8/21/2019 13:09,11/16/2019 21:36,0,2096.4333,2096.4333,1,Horizontal,-6,2,1.656,0,1,months3
09a8e677404fe1908a1880b2f4,8/21/2019 13:09,11/16/2019 21:36,0,2096.4333,2096.4333,1,Horizontal,-10,3,0.863,0,1,months3
09a8e677404fe1908a1880b2f4,8/21/2019 13:09,11/16/2019 21:36,0,2096.4333,2096.4333,1,Vertical,-4,4,1.658,1,1,months3
09a8e677404fe1908a1880b2f4,8/21/2019 13:09,11/16/2019 21:36,0,2096.4333,2096.4333,1,Vertical,10,5,1.778,1,1,months3
09a8e677404fe1908a1880b2f4,8/21/2019 13:09,11/16/2019 21:36,0,2096.4333,2096.4333,1,Vertical,-10,6,1.648,0,1,months3
09a8e677404fe1908a1880b2f4,8/21/2019 13:09,11/16/2019 21:36,0,2096.4333,2096.4333,1,Horizontal,0,7,1.499,1,1,months3
09a8e677404fe1908a1880b2f4,8/21/2019 13:09,11/16/2019 21:36,0,2096.4333,2096.4333,1,Horizontal,-4,8,1.117,0,1,months3
09a8e677404fe1908a1880b2f4,8/21/2019 13:09,11/16/2019 21:36,0,2096.4333,2096.4333,1,Horizontal,-2,9,1.795,0,1,months3
09a8e677404fe1908a1880b2f4,8/21/2019 13:09,11/16/2019 21:36,0,2096.4333,2096.4333,1,Vertical,2,10,1.584,0,1,months3
09a8e677404fe1908a1880b2f4,8/21/2019 13:09,11/16/2019 21:36,0,2096.4333,2096.4333,1,Vertical,-4,11,1.572,1,1,months3
09a8e677404fe1908a1880b2f4,8/21/2019 13:09,11/16/2019 21:36,0,2096.4333,2096.4333,1,Vertical,6,12,1.307,1,1,months3
09a8e677404fe1908a1880b2f4,8/21/2019 13:09,11/16/2019 21:36,0,2096.4333,2096.4333,1,Horizontal,0,13,1.713,1,1,months3
09a8e677404fe1908a1880b2f4,8/21/2019 13:09,11/16/2019 21:36,0,2096.4333,2096.4333,1,Horizontal,-2,14,1.686,0,1,months3
09a8e677404fe1908a1880b2f4,8/21/2019 13:09,11/16/2019 21:36,0,2096.4333,2096.4333,1,Horizontal,10,15,0.798,1,1,months3
09a8e677404fe1908a1880b2f4,8/21/2019 13:09,11/16/2019 21:36,0,2096.4333,2096.4333,1,Vertical,0,16,1.312,1,1,months3
09a8e677404fe1908a1880b2f4,8/21/2019 13:09,11/16/2019 21:36,0,2096.4333,2096.4333,1,Vertical,2,17,1.54,1,1,months3
09a8e677404fe1908a1880b2f4,8/21/2019 13:09,11/16/2019 21:36,0,2096.4333,2096.4333,1,Vertical,-10,18,0.922,0,1,months3
09a8e677404fe1908a1880b2f4,8/21/2019 13:09,11/16/2019 21:36,0,2096.4333,2096.4333,1,Horizontal,4,19,0.706,1,1,months3
09a8e677404fe1908a1880b2f4,8/21/2019 13:09,11/16/2019 21:36,0,2096.4333,2096.4333,1,Horizontal,-8,20,0.79,0,1,months3
09a8e677404fe1908a1880b2f4,8/21/2019 13:09,11/16/2019 21:36,0,2096.4333,2096.4333,1,Horizontal,4,21,0.78,1,1,months3
09a8e677404fe1908a1880b2f4,8/21/2019 13:09,11/16/2019 21:36,0,2096.4333,2096.4333,1,Vertical,6,22,0.883,1,1,months3
09a8e677404fe1908a1880b2f4,8/21/2019 13:09,11/16/2019 21:36,0,2096.4333,2096.4333,1,Vertical,10,23,0.845,1,1,months3
09a8e677404fe1908a1880b2f4,8/21/2019 13:09,11/16/2019 21:36,0,2096.4333,2096.4333,1,Vertical,-2,24,1.987,1,1,months3
09a8e677404fe1908a1880b2f4,8/21/2019 13:09,11/16/2019 21:36,0,2096.4333,2096.4333,1,Horizontal,0,25,1.728,1,1,months3
09a8e677404fe1908a1880b2f4,8/21/2019 13:09,11/16/2019 21:36,0,2096.4333,2096.4333,1,Horizontal,4,26,0.685,1,1,months3
09a8e677404fe1908a1880b2f4,8/21/2019 13:09,11/16/2019 21:36,0,2096.4333,2096.4333,1,Horizontal,-4,27,1.039,0,1,months3
09a8e677404fe1908a1880b2f4,8/21/2019 13:09,11/16/2019 21:36,0,2096.4333,2096.4333,1,Vertical,0,28,2.559,1,1,months3
09a8e677404fe1908a1880b2f4,8/21/2019 13:09,11/16/2019 21:36,0,2096.4333,2096.4333,1,Vertical,-2,29,3.4,1,1,months3
09a8e677404fe1908a1880b2f4,8/21/2019 13:09,11/16/2019 21:36,0,2096.4333,2096.4333,1,Vertical,4,30,1.368,1,1,months3
09a8e677404fe1908a1880b2f4,8/21/2019 13:09,11/16/2019 21:36,0,2096.4333,2096.4333,1,Horizontal,-8,31,1.139,0,1,months3
09a8e677404fe1908a1880b2f4,8/21/2019 13:09,11/16/2019 21:36,0,2096.4333,2096.4333,1,Horizontal,-8,32,0.782,0,1,months3
09a8e677404fe1908a1880b2f4,8/21/2019 13:09,11/16/2019 21:36,0,2096.4333,2096.4333,1,Horizontal,6,33,0.611,1,1,months3
09a8e677404fe1908a1880b2f4,8/21/2019 13:09,11/16/2019 21:36,0,2096.4333,2096.4333,1,Vertical,-10,34,1.112,0,1,months3
09a8e677404fe1908a1880b2f4,8/21/2019 13:09,11/16/2019 21:36,0,2096.4333,2096.4333,1,Vertical,2,35,1.212,1,1,months3
09a8e677404fe1908a1880b2f4,8/21/2019 13:09,11/16/2019 21:36,0,2096.4333,2096.4333,1,Vertical,-2,36,1.255,1,1,months3
09a8e677404fe1908a1880b2f4,8/21/2019 13:09,11/16/2019 21:36,0,2096.4333,2096.4333,1,Horizontal,0,37,0.733,1,1,months3
09a8e677404fe1908a1880b2f4,8/21/2019 13:09,11/16/2019 21:36,0,2096.4333,2096.4333,1,Horizontal,-4,38,1.09,0,1,months3
09a8e677404fe1908a1880b2f4,8/21/2019 13:09,11/16/2019 21:36,0,2096.4333,2096.4333,1,Horizontal,-6,39,0.853,0,1,months3
09a8e677404fe1908a1880b2f4,8/21/2019 13:09,11/16/2019 21:36,0,2096.4333,2096.4333,1,Vertical,0,40,1.399,1,1,months3
09a8e677404fe1908a1880b2f4,8/21/2019 13:09,11/16/2019 21:36,0,2096.4333,2096.4333,1,Vertical,10,41,0.795,1,1,months3
09a8e677404fe1908a1880b2f4,8/21/2019 13:09,11/16/2019 21:36,0,2096.4333,2096.4333,1,Vertical,-4,42,1.936,0,1,months3
09a8e677404fe1908a1880b2f4,8/21/2019 13:09,11/16/2019 21:36,0,2096.4333,2096.4333,1,Horizontal,4,43,0.955,1,1,months3
09a8e677404fe1908a1880b2f4,8/21/2019 13:09,11/16/2019 21:36,0,2096.4333,2096.4333,1,Horizontal,6,44,0.724,1,1,months3
09a8e677404fe1908a1880b2f4,8/21/2019 13:09,11/16/2019 21:36,0,2096.4333,2096.4333,1,Horizontal,10,45,0.841,1,1,months3
09a8e677404fe1908a1880b2f4,8/21/2019 13:09,11/16/2019 21:36,0,2096.4333,2096.4333,1,Vertical,0,46,1.886,1,1,months3
09a8e677404fe1908a1880b2f4,8/21/2019 13:09,11/16/2019 21:36,0,2096.4333,2096.4333,1,Vertical,-8,47,1.528,0,1,months3
09a8e677404fe1908a1880b2f4,8/21/2019 13:09,11/16/2019 21:36,0,2096.4333,2096.4333,1,Vertical,8,48,1.154,1,1,months3
09a8e677404fe1908a1880b2f4,8/21/2019 13:09,11/16/2019 21:36,0,2096.4333,2096.4333,1,Horizontal,0,49,1.923,0,1,months3
09a8e677404fe1908a1880b2f4,8/21/2019 13:09,11/16/2019 21:36,0,2096.4333,2096.4333,1,Horizontal,2,50,1.773,1,1,months3
09a8e677404fe1908a1880b2f4,8/21/2019 13:09,11/16/2019 21:36,0,2096.4333,2096.4333,1,Horizontal,-2,51,1.504,0,1,months3
09a8e677404fe1908a1880b2f4,8/21/2019 13:09,11/16/2019 21:36,0,2096.4333,2096.4333,1,Vertical,4,52,1.112,1,1,months3
09a8e677404fe1908a1880b2f4,8/21/2019 13:09,11/16/2019 21:36,0,2096.4333,2096.4333,1,Vertical,-6,53,1.006,0,1,months3
09a8e677404fe1908a1880b2f4,8/21/2019 13:09,11/16/2019 21:36,0,2096.4333,2096.4333,1,Vertical,4,54,1.256,1,1,months3
09a8e677404fe1908a1880b2f4,8/21/2019 13:09,11/16/2019 21:36,0,2096.4333,2096.4333,1,Horizontal,-2,55,1.801,0,1,months3
09a8e677404fe1908a1880b2f4,8/21/2019 13:09,11/16/2019 21:36,0,2096.4333,2096.4333,1,Horizontal,-8,56,0.84,0,1,months3
09a8e677404fe1908a1880b2f4,8/21/2019 13:09,11/16/2019 21:36,0,2096.4333,2096.4333,1,Horizontal,2,57,0.79,1,1,months3
09a8e677404fe1908a1880b2f4,8/21/2019 13:09,11/16/2019 21:36,0,2096.4333,2096.4333,1,Vertical,0,58,2.525,1,1,months3
09a8e677404fe1908a1880b2f4,8/21/2019 13:09,11/16/2019 21:36,0,2096.4333,2096.4333,1,Vertical,4,59,1.128,1,1,months3
09a8e677404fe1908a1880b2f4,8/21/2019 13:09,11/16/2019 21:36,0,2096.4333,2096.4333,1,Vertical,6,60,0.943,1,1,months3
09a8e677404fe1908a1880b2f4,8/21/2019 13:09,11/16/2019 21:36,0,2096.4333,2096.4333,1,Horizontal,0,61,1.555,1,1,months3
09a8e677404fe1908a1880b2f4,8/21/2019 13:09,11/16/2019 21:36,0,2096.4333,2096.4333,1,Horizontal,6,62,0.686,1,1,months3
09a8e677404fe1908a1880b2f4,8/21/2019 13:09,11/16/2019 21:36,0,2096.4333,2096.4333,1,Horizontal,8,63,0.581,1,1,months3
09a8e677404fe1908a1880b2f4,8/21/2019 13:09,11/16/2019 21:36,0,2096.4333,2096.4333,1,Vertical,0,64,1.283,1,1,months3
09a8e677404fe1908a1880b2f4,8/21/2019 13:09,11/16/2019 21:36,0,2096.4333,2096.4333,1,Vertical,8,65,1.069,1,1,months3
09a8e677404fe1908a1880b2f4,8/21/2019 13:09,11/16/2019 21:36,0,2096.4333,2096.4333,1,Vertical,8,66,1.214,1,1,months3
09a8e677404fe1908a1880b2f4,8/21/2019 13:09,11/16/2019 21:36,0,2096.4333,2096.4333,1,Horizontal,0,67,3.006,1,1,months3
09a8e677404fe1908a1880b2f4,8/21/2019 13:09,11/16/2019 21:36,0,2096.4333,2096.4333,1,Horizontal,-10,68,0.727,0,1,months3
09a8e677404fe1908a1880b2f4,8/21/2019 13:09,11/16/2019 21:36,0,2096.4333,2096.4333,1,Horizontal,10,69,0.696,1,1,months3
09a8e677404fe1908a1880b2f4,8/21/2019 13:09,11/16/2019 21:36,0,2096.4333,2096.4333,1,Vertical,-6,70,1.307,0,1,months3
09a8e677404fe1908a1880b2f4,8/21/2019 13:09,11/16/2019 21:36,0,2096.4333,2096.4333,1,Vertical,-8,71,0.781,0,1,months3
09a8e677404fe1908a1880b2f4,8/21/2019 13:09,11/16/2019 21:36,0,2096.4333,2096.4333,1,Vertical,-2,72,1.564,1,1,months3
09a8e677404fe1908a1880b2f4,8/21/2019 13:09,11/16/2019 21:36,0,2096.4333,2096.4333,1,Horizontal,8,73,0.765,1,1,months3
09a8e677404fe1908a1880b2f4,8/21/2019 13:09,11/16/2019 21:36,0,2096.4333,2096.4333,1,Horizontal,-8,74,0.661,0,1,months3
09a8e677404fe1908a1880b2f4,8/21/2019 13:09,11/16/2019 21:36,0,2096.4333,2096.4333,1,Horizontal,-2,75,2.44,0,1,months3
09a8e677404fe1908a1880b2f4,8/21/2019 13:09,11/16/2019 21:36,0,2096.4333,2096.4333,1,Vertical,0,76,1.603,1,1,months3
09a8e677404fe1908a1880b2f4,8/21/2019 13:09,11/16/2019 21:36,0,2096.4333,2096.4333,1,Vertical,8,77,1.345,1,1,months3
09a8e677404fe1908a1880b2f4,8/21/2019 13:09,11/16/2019 21:36,0,2096.4333,2096.4333,1,Vertical,-8,78,1.139,0,1,months3
09a8e677404fe1908a1880b2f4,8/21/2019 13:09,11/16/2019 21:36,0,2096.4333,2096.4333,1,Horizontal,-6,79,0.665,0,1,months3
09a8e677404fe1908a1880b2f4,8/21/2019 13:09,11/16/2019 21:36,0,2096.4333,2096.4333,1,Horizontal,2,80,0.925,1,1,months3
09a8e677404fe1908a1880b2f4,8/21/2019 13:09,11/16/2019 21:36,0,2096.4333,2096.4333,1,Horizontal,6,81,0.636,1,1,months3
09a8e677404fe1908a1880b2f4,8/21/2019 13:09,11/16/2019 21:36,0,2096.4333,2096.4333,1,Vertical,-10,82,0.893,0,1,months3
09a8e677404fe1908a1880b2f4,8/21/2019 13:09,11/16/2019 21:36,0,2096.4333,2096.4333,1,Vertical,2,83,1.408,1,1,months3
09a8e677404fe1908a1880b2f4,8/21/2019 13:09,11/16/2019 21:36,0,2096.4333,2096.4333,1,Vertical,2,84,2.068,1,1,months3
09a8e677404fe1908a1880b2f4,8/21/2019 13:09,11/16/2019 21:36,0,2096.4333,2096.4333,1,Horizontal,0,85,1.624,1,1,months3
09a8e677404fe1908a1880b2f4,8/21/2019 13:09,11/16/2019 21:36,0,2096.4333,2096.4333,1,Horizontal,8,86,1.016,1,1,months3
09a8e677404fe1908a1880b2f4,8/21/2019 13:09,11/16/2019 21:36,0,2096.4333,2096.4333,1,Horizontal,-4,87,0.901,0,1,months3
09a8e677404fe1908a1880b2f4,8/21/2019 13:09,11/16/2019 21:36,0,2096.4333,2096.4333,1,Vertical,0,88,1.543,1,1,months3
09a8e677404fe1908a1880b2f4,8/21/2019 13:09,11/16/2019 21:36,0,2096.4333,2096.4333,1,Vertical,6,89,1.14,1,1,months3
09a8e677404fe1908a1880b2f4,8/21/2019 13:09,11/16/2019 21:36,0,2096.4333,2096.4333,1,Vertical,6,90,1.22,1,1,months3
09a8e677404fe1908a1880b2f4,8/21/2019 13:09,11/16/2019 21:36,0,2096.4333,2096.4333,1,Horizontal,0,91,1.544,0,1,months3
09a8e677404fe1908a1880b2f4,8/21/2019 13:09,11/16/2019 21:36,0,2096.4333,2096.4333,1,Horizontal,-6,92,1.458,0,1,months3
09a8e677404fe1908a1880b2f4,8/21/2019 13:09,11/16/2019 21:36,0,2096.4333,2096.4333,1,Horizontal,8,93,0.671,1,1,months3
09a8e677404fe1908a1880b2f4,8/21/2019 13:09,11/16/2019 21:36,0,2096.4333,2096.4333,1,Vertical,-6,94,2.035,0,1,months3
09a8e677404fe1908a1880b2f4,8/21/2019 13:09,11/16/2019 21:36,0,2096.4333,2096.4333,1,Vertical,-10,95,0.841,0,1,months3
09a8e677404fe1908a1880b2f4,8/21/2019 13:09,11/16/2019 21:36,0,2096.4333,2096.4333,1,Vertical,-8,96,1.065,0,1,months3
09a8e677404fe1908a1880b2f4,8/21/2019 13:09,11/16/2019 21:36,0,2096.4333,2096.4333,1,Horizontal,-4,97,1.514,0,1,months3
09a8e677404fe1908a1880b2f4,8/21/2019 13:09,11/16/2019 21:36,0,2096.4333,2096.4333,1,Horizontal,-10,98,0.681,0,1,months3
09a8e677404fe1908a1880b2f4,8/21/2019 13:09,11/16/2019 21:36,0,2096.4333,2096.4333,1,Horizontal,2,99,0.639,1,1,months3
09a8e677404fe1908a1880b2f4,8/21/2019 13:09,11/16/2019 21:36,0,2096.4333,2096.4333,1,Vertical,0,100,1.134,1,1,months3
09a8e677404fe1908a1880b2f4,8/21/2019 13:09,11/16/2019 21:36,0,2096.4333,2096.4333,1,Vertical,-4,101,1.256,1,1,months3
09a8e677404fe1908a1880b2f4,8/21/2019 13:09,11/16/2019 21:36,0,2096.4333,2096.4333,1,Vertical,-4,102,2.315,1,1,months3
09a8e677404fe1908a1880b2f4,8/21/2019 13:09,11/16/2019 21:36,0,2096.4333,2096.4333,1,Horizontal,4,103,0.702,1,1,months3
09a8e677404fe1908a1880b2f4,8/21/2019 13:09,11/16/2019 21:36,0,2096.4333,2096.4333,1,Horizontal,-6,104,0.629,0,1,months3
09a8e677404fe1908a1880b2f4,8/21/2019 13:09,11/16/2019 21:36,0,2096.4333,2096.4333,1,Horizontal,-10,105,0.546,0,1,months3
09a8e677404fe1908a1880b2f4,8/21/2019 13:09,11/16/2019 21:36,0,2096.4333,2096.4333,1,Vertical,-6,106,1.384,0,1,months3
09a8e677404fe1908a1880b2f4,8/21/2019 13:09,11/16/2019 21:36,0,2096.4333,2096.4333,1,Vertical,8,107,0.979,1,1,months3
09a8e677404fe1908a1880b2f4,8/21/2019 13:09,11/16/2019 21:36,0,2096.4333,2096.4333,1,Vertical,4,108,0.819,1,1,months3
09a8e677404fe1908a1880b2f4,8/21/2019 13:09,11/16/2019 21:36,0,2096.4333,2096.4333,1,Horizontal,2,109,0.846,1,1,months3
09a8e677404fe1908a1880b2f4,8/21/2019 13:09,11/16/2019 21:36,0,2096.4333,2096.4333,1,Horizontal,8,110,0.6,1,1,months3
09a8e677404fe1908a1880b2f4,8/21/2019 13:09,11/16/2019 21:36,0,2096.4333,2096.4333,1,Horizontal,-10,111,0.558,0,1,months3
09a8e677404fe1908a1880b2f4,8/21/2019 13:09,11/16/2019 21:36,0,2096.4333,2096.4333,1,Vertical,-8,112,1.016,0,1,months3
09a8e677404fe1908a1880b2f4,8/21/2019 13:09,11/16/2019 21:36,0,2096.4333,2096.4333,1,Vertical,-2,113,1.812,1,1,months3
09a8e677404fe1908a1880b2f4,8/21/2019 13:09,11/16/2019 21:36,0,2096.4333,2096.4333,1,Vertical,-6,114,0.988,0,1,months3
09a8e677404fe1908a1880b2f4,8/21/2019 13:09,11/16/2019 21:36,0,2096.4333,2096.4333,1,Horizontal,0,115,1.905,1,1,months3
09a8e677404fe1908a1880b2f4,8/21/2019 13:09,11/16/2019 21:36,0,2096.4333,2096.4333,1,Horizontal,10,116,0.787,1,1,months3
09a8e677404fe1908a1880b2f4,8/21/2019 13:09,11/16/2019 21:36,0,2096.4333,2096.4333,1,Horizontal,6,117,0.621,1,1,months3
09a8e677404fe1908a1880b2f4,8/21/2019 13:09,11/16/2019 21:36,0,2096.4333,2096.4333,1,Vertical,0,118,1.144,1,1,months3
09a8e677404fe1908a1880b2f4,8/21/2019 13:09,11/16/2019 21:36,0,2096.4333,2096.4333,1,Vertical,10,119,0.652,1,1,months3
09a8e677404fe1908a1880b2f4,8/21/2019 13:09,11/16/2019 21:36,0,2096.4333,2096.4333,1,Vertical,10,120,0.787,1,1,months3
09a8e677404fe1908a1880b2f4,8/21/2019 13:09,11/16/2019 21:36,0,2096.4333,2096.4333,1,Horizontal,6,121,0.909,1,1,months3
09a8e677404fe1908a1880b2f4,8/21/2019 13:09,11/16/2019 21:36,0,2096.4333,2096.4333,1,Horizontal,-2,122,1.508,0,1,months3
09a8e677404fe1908a1880b2f4,8/21/2019 13:09,11/16/2019 21:36,0,2096.4333,2096.4333,1,Horizontal,4,123,0.739,1,1,months3
09a8e677404fe1908a1880b2f4,8/21/2019 13:09,11/16/2019 21:36,0,2096.4333,2096.4333,1,Vertical,0,124,1.745,1,1,months3
09a8e677404fe1908a1880b2f4,8/21/2019 13:09,11/16/2019 21:36,0,2096.4333,2096.4333,1,Vertical,6,125,0.958,1,1,months3
09a8e677404fe1908a1880b2f4,8/21/2019 13:09,11/16/2019 21:36,0,2096.4333,2096.4333,1,Vertical,-6,126,0.93,0,1,months3
09a8e677404fe1908a1880b2f4,8/21/2019 13:09,11/16/2019 21:36,0,2096.4333,2096.4333,1,Horizontal,0,127,1.683,1,1,months3
09a8e677404fe1908a1880b2f4,8/21/2019 13:09,11/16/2019 21:36,0,2096.4333,2096.4333,1,Horizontal,6,128,0.976,1,1,months3
09a8e677404fe1908a1880b2f4,8/21/2019 13:09,11/16/2019 21:36,0,2096.4333,2096.4333,1,Horizontal,6,129,0.774,1,1,months3
09a8e677404fe1908a1880b2f4,8/21/2019 13:09,11/16/2019 21:36,0,2096.4333,2096.4333,1,Vertical,-2,130,2.366,1,1,months3
09a8e677404fe1908a1880b2f4,8/21/2019 13:09,11/16/2019 21:36,0,2096.4333,2096.4333,1,Vertical,6,131,0.892,1,1,months3
09a8e677404fe1908a1880b2f4,8/21/2019 13:09,11/16/2019 21:36,0,2096.4333,2096.4333,1,Vertical,4,132,1.034,1,1,months3
09a8e677404fe1908a1880b2f4,8/21/2019 13:09,11/16/2019 21:36,0,2096.4333,2096.4333,1,Horizontal,0,133,1.863,1,1,months3
09a8e677404fe1908a1880b2f4,8/21/2019 13:09,11/16/2019 21:36,0,2096.4333,2096.4333,1,Horizontal,-2,134,1.596,0,1,months3
09a8e677404fe1908a1880b2f4,8/21/2019 13:09,11/16/2019 21:36,0,2096.4333,2096.4333,1,Horizontal,-4,135,0.941,0,1,months3
09a8e677404fe1908a1880b2f4,8/21/2019 13:09,11/16/2019 21:36,0,2096.4333,2096.4333,1,Vertical,0,136,1.797,1,1,months3
09a8e677404fe1908a1880b2f4,8/21/2019 13:09,11/16/2019 21:36,0,2096.4333,2096.4333,1,Vertical,2,137,1.003,1,1,months3
09a8e677404fe1908a1880b2f4,8/21/2019 13:09,11/16/2019 21:36,0,2096.4333,2096.4333,1,Vertical,10,138,0.687,1,1,months3
09a8e677404fe1908a1880b2f4,8/21/2019 13:09,11/16/2019 21:36,0,2096.4333,2096.4333,1,Horizontal,-6,139,0.847,0,1,months3
09a8e677404fe1908a1880b2f4,8/21/2019 13:09,11/16/2019 21:36,0,2096.4333,2096.4333,1,Horizontal,8,140,0.574,1,1,months3
09a8e677404fe1908a1880b2f4,8/21/2019 13:09,11/16/2019 21:36,0,2096.4333,2096.4333,1,Horizontal,4,141,0.756,1,1,months3
09a8e677404fe1908a1880b2f4,8/21/2019 13:09,11/16/2019 21:36,0,2096.4333,2096.4333,1,Vertical,0,142,2.506,1,1,months3
09a8e677404fe1908a1880b2f4,8/21/2019 13:09,11/16/2019 21:36,0,2096.4333,2096.4333,1,Vertical,-4,143,1.719,0,1,months3
09a8e677404fe1908a1880b2f4,8/21/2019 13:09,11/16/2019 21:36,0,2096.4333,2096.4333,1,Vertical,2,144,1.345,1,1,months3
09a8e677404fe1908a1880b2f4,8/21/2019 13:09,11/16/2019 21:36,0,2096.4333,2096.4333,1,Horizontal,0,145,1.987,1,1,months3
09a8e677404fe1908a1880b2f4,8/21/2019 13:09,11/16/2019 21:36,0,2096.4333,2096.4333,1,Horizontal,2,146,1.33,1,1,months3
09a8e677404fe1908a1880b2f4,8/21/2019 13:09,11/16/2019 21:36,0,2096.4333,2096.4333,1,Horizontal,2,147,1.142,1,1,months3
09a8e677404fe1908a1880b2f4,8/21/2019 13:09,11/16/2019 21:36,0,2096.4333,2096.4333,1,Vertical,-8,148,1.982,0,1,months3
09a8e677404fe1908a1880b2f4,8/21/2019 13:09,11/16/2019 21:36,0,2096.4333,2096.4333,1,Vertical,-10,149,0.782,0,1,months3
09a8e677404fe1908a1880b2f4,8/21/2019 13:09,11/16/2019 21:36,0,2096.4333,2096.4333,1,Vertical,-2,150,1.215,1,1,months3
09a8e677404fe1908a1880b2f4,8/21/2019 13:09,11/16/2019 21:36,0,2096.4333,2096.4333,1,Horizontal,-4,151,1.467,0,1,months3
09a8e677404fe1908a1880b2f4,8/21/2019 13:09,11/16/2019 21:36,0,2096.4333,2096.4333,1,Horizontal,-10,152,0.755,0,1,months3
09a8e677404fe1908a1880b2f4,8/21/2019 13:09,11/16/2019 21:36,0,2096.4333,2096.4333,1,Horizontal,2,153,0.751,1,1,months3
09a8e677404fe1908a1880b2f4,8/21/2019 13:09,11/16/2019 21:36,0,2096.4333,2096.4333,1,Vertical,0,154,2.036,1,1,months3
09a8e677404fe1908a1880b2f4,8/21/2019 13:09,11/16/2019 21:36,0,2096.4333,2096.4333,1,Vertical,-8,155,0.875,0,1,months3
09a8e677404fe1908a1880b2f4,8/21/2019 13:09,11/16/2019 21:36,0,2096.4333,2096.4333,1,Vertical,2,156,1.189,1,1,months3
09a8e677404fe1908a1880b2f4,8/21/2019 13:09,11/16/2019 21:36,0,2096.4333,2096.4333,1,Horizontal,0,157,2.866,1,1,months3
09a8e677404fe1908a1880b2f4,8/21/2019 13:09,11/16/2019 21:36,0,2096.4333,2096.4333,1,Horizontal,4,158,0.68,1,1,months3
09a8e677404fe1908a1880b2f4,8/21/2019 13:09,11/16/2019 21:36,0,2096.4333,2096.4333,1,Horizontal,-2,159,1.224,0,1,months3
09a8e677404fe1908a1880b2f4,8/21/2019 13:09,11/16/2019 21:36,0,2096.4333,2096.4333,1,Vertical,8,160,0.74,1,1,months3
09a8e677404fe1908a1880b2f4,8/21/2019 13:09,11/16/2019 21:36,0,2096.4333,2096.4333,1,Vertical,-6,161,1.83,0,1,months3
09a8e677404fe1908a1880b2f4,8/21/2019 13:09,11/16/2019 21:36,0,2096.4333,2096.4333,1,Vertical,-4,162,2.138,0,1,months3
09a8e677404fe1908a1880b2f4,8/21/2019 13:09,11/16/2019 21:36,0,2096.4333,2096.4333,1,Horizontal,2,163,0.99,1,1,months3
09a8e677404fe1908a1880b2f4,8/21/2019 13:09,11/16/2019 21:36,0,2096.4333,2096.4333,1,Horizontal,8,164,0.836,1,1,months3
09a8e677404fe1908a1880b2f4,8/21/2019 13:09,11/16/2019 21:36,0,2096.4333,2096.4333,1,Horizontal,-8,165,0.789,0,1,months3
09a8e677404fe1908a1880b2f4,8/21/2019 13:09,11/16/2019 21:36,0,2096.4333,2096.4333,1,Vertical,-10,166,1.09,0,1,months3
09a8e677404fe1908a1880b2f4,8/21/2019 13:09,11/16/2019 21:36,0,2096.4333,2096.4333,1,Vertical,10,167,0.803,1,1,months3
09a8e677404fe1908a1880b2f4,8/21/2019 13:09,11/16/2019 21:36,0,2096.4333,2096.4333,1,Vertical,-4,168,2.091,1,1,months3
09a8e677404fe1908a1880b2f4,8/21/2019 13:09,11/16/2019 21:36,0,2096.4333,2096.4333,1,Horizontal,8,169,0.653,1,1,months3
09a8e677404fe1908a1880b2f4,8/21/2019 13:09,11/16/2019 21:36,0,2096.4333,2096.4333,1,Horizontal,8,170,0.639,1,1,months3
09a8e677404fe1908a1880b2f4,8/21/2019 13:09,11/16/2019 21:36,0,2096.4333,2096.4333,1,Horizontal,-8,171,0.785,0,1,months3
09a8e677404fe1908a1880b2f4,8/21/2019 13:09,11/16/2019 21:36,0,2096.4333,2096.4333,1,Vertical,0,172,1.427,1,1,months3
09a8e677404fe1908a1880b2f4,8/21/2019 13:09,11/16/2019 21:36,0,2096.4333,2096.4333,1,Vertical,8,173,0.774,1,1,months3
09a8e677404fe1908a1880b2f4,8/21/2019 13:09,11/16/2019 21:36,0,2096.4333,2096.4333,1,Vertical,-2,174,1.262,0,1,months3
09a8e677404fe1908a1880b2f4,8/21/2019 13:09,11/16/2019 21:36,0,2096.4333,2096.4333,1,Horizontal,0,175,1.907,0,1,months3
09a8e677404fe1908a1880b2f4,8/21/2019 13:09,11/16/2019 21:36,0,2096.4333,2096.4333,1,Horizontal,-8,176,0.676,0,1,months3
09a8e677404fe1908a1880b2f4,8/21/2019 13:09,11/16/2019 21:36,0,2096.4333,2096.4333,1,Horizontal,-4,177,0.981,0,1,months3
09a8e677404fe1908a1880b2f4,8/21/2019 13:09,11/16/2019 21:36,0,2096.4333,2096.4333,1,Vertical,8,178,0.936,1,1,months3
09a8e677404fe1908a1880b2f4,8/21/2019 13:09,11/16/2019 21:36,0,2096.4333,2096.4333,1,Vertical,-8,179,1.257,0,1,months3
09a8e677404fe1908a1880b2f4,8/21/2019 13:09,11/16/2019 21:36,0,2096.4333,2096.4333,1,Vertical,2,180,1.357,1,1,months3
09a8e677404fe1908a1880b2f4,8/21/2019 13:09,11/16/2019 21:36,0,2096.4333,2096.4333,1,Horizontal,10,181,0.86,1,1,months3
09a8e677404fe1908a1880b2f4,8/21/2019 13:09,11/16/2019 21:36,0,2096.4333,2096.4333,1,Horizontal,-6,182,0.8,0,1,months3
09a8e677404fe1908a1880b2f4,8/21/2019 13:09,11/16/2019 21:36,0,2096.4333,2096.4333,1,Horizontal,4,183,0.715,1,1,months3
09a8e677404fe1908a1880b2f4,8/21/2019 13:09,11/16/2019 21:36,0,2096.4333,2096.4333,1,Vertical,-6,184,0.93,0,1,months3
09a8e677404fe1908a1880b2f4,8/21/2019 13:09,11/16/2019 21:36,0,2096.4333,2096.4333,1,Vertical,-6,185,0.808,0,1,months3
09a8e677404fe1908a1880b2f4,8/21/2019 13:09,11/16/2019 21:36,0,2096.4333,2096.4333,1,Vertical,-10,186,0.806,0,1,months3
09a8e677404fe1908a1880b2f4,8/21/2019 13:09,11/16/2019 21:36,0,2096.4333,2096.4333,1,Horizontal,8,187,0.655,1,1,months3
09a8e677404fe1908a1880b2f4,8/21/2019 13:09,11/16/2019 21:36,0,2096.4333,2096.4333,1,Horizontal,-6,188,0.644,0,1,months3
09a8e677404fe1908a1880b2f4,8/21/2019 13:09,11/16/2019 21:36,0,2096.4333,2096.4333,1,Horizontal,-6,189,0.65,0,1,months3
09a8e677404fe1908a1880b2f4,8/21/2019 13:09,11/16/2019 21:36,0,2096.4333,2096.4333,1,Vertical,0,190,1.184,1,1,months3
09a8e677404fe1908a1880b2f4,8/21/2019 13:09,11/16/2019 21:36,0,2096.4333,2096.4333,1,Vertical,6,191,0.716,1,1,months3
09a8e677404fe1908a1880b2f4,8/21/2019 13:09,11/16/2019 21:36,0,2096.4333,2096.4333,1,Vertical,10,192,0.701,1,1,months3
09a8e677404fe1908a1880b2f4,8/21/2019 13:09,11/16/2019 21:36,0,2096.4333,2096.4333,1,Horizontal,0,193,1.193,1,1,months3
09a8e677404fe1908a1880b2f4,8/21/2019 13:09,11/16/2019 21:36,0,2096.4333,2096.4333,1,Horizontal,6,194,0.703,1,1,months3
09a8e677404fe1908a1880b2f4,8/21/2019 13:09,11/16/2019 21:36,0,2096.4333,2096.4333,1,Horizontal,2,195,0.727,1,1,months3
09a8e677404fe1908a1880b2f4,8/21/2019 13:09,11/16/2019 21:36,0,2096.4333,2096.4333,1,Vertical,-8,196,0.874,0,1,months3
09a8e677404fe1908a1880b2f4,8/21/2019 13:09,11/16/2019 21:36,0,2096.4333,2096.4333,1,Vertical,-4,197,3.29,0,1,months3
09a8e677404fe1908a1880b2f4,8/21/2019 13:09,11/16/2019 21:36,0,2096.4333,2096.4333,1,Vertical,8,198,0.962,1,1,months3
09a8e677404fe1908a1880b2f4,8/21/2019 13:09,11/16/2019 21:36,0,2096.4333,2096.4333,1,Horizontal,0,199,1.932,1,1,months3
09a8e677404fe1908a1880b2f4,8/21/2019 13:09,11/16/2019 21:36,0,2096.4333,2096.4333,1,Horizontal,-10,200,0.659,0,1,months3
09a8e677404fe1908a1880b2f4,8/21/2019 13:09,11/16/2019 21:36,0,2096.4333,2096.4333,1,Horizontal,-8,201,0.598,0,1,months3
09a8e677404fe1908a1880b2f4,8/21/2019 13:09,11/16/2019 21:36,0,2096.4333,2096.4333,1,Vertical,-8,202,1.725,0,1,months3
09a8e677404fe1908a1880b2f4,8/21/2019 13:09,11/16/2019 21:36,0,2096.4333,2096.4333,1,Vertical,4,203,1.217,1,1,months3
09a8e677404fe1908a1880b2f4,8/21/2019 13:09,11/16/2019 21:36,0,2096.4333,2096.4333,1,Vertical,4,204,0.829,1,1,months3
09a8e677404fe1908a1880b2f4,8/21/2019 13:09,11/16/2019 21:36,0,2096.4333,2096.4333,1,Horizontal,0,205,1.475,0,1,months3
09a8e677404fe1908a1880b2f4,8/21/2019 13:09,11/16/2019 21:36,0,2096.4333,2096.4333,1,Horizontal,10,206,0.632,1,1,months3
09a8e677404fe1908a1880b2f4,8/21/2019 13:09,11/16/2019 21:36,0,2096.4333,2096.4333,1,Horizontal,-2,207,1.067,0,1,months3
09a8e677404fe1908a1880b2f4,8/21/2019 13:09,11/16/2019 21:36,0,2096.4333,2096.4333,1,Vertical,0,208,0.738,1,1,months3
09a8e677404fe1908a1880b2f4,8/21/2019 13:09,11/16/2019 21:36,0,2096.4333,2096.4333,1,Vertical,4,209,1.028,1,1,months3
09a8e677404fe1908a1880b2f4,8/21/2019 13:09,11/16/2019 21:36,0,2096.4333,2096.4333,1,Vertical,8,210,0.656,1,1,months3
09a8e677404fe1908a1880b2f4,8/21/2019 13:09,11/16/2019 21:36,0,2096.4333,2096.4333,1,Horizontal,6,211,0.849,1,1,months3
09a8e677404fe1908a1880b2f4,8/21/2019 13:09,11/16/2019 21:36,0,2096.4333,2096.4333,1,Horizontal,-8,212,0.64,0,1,months3
09a8e677404fe1908a1880b2f4,8/21/2019 13:09,11/16/2019 21:36,0,2096.4333,2096.4333,1,Horizontal,-10,213,0.536,0,1,months3
09a8e677404fe1908a1880b2f4,8/21/2019 13:09,11/16/2019 21:36,0,2096.4333,2096.4333,1,Vertical,0,214,1.981,1,1,months3
09a8e677404fe1908a1880b2f4,8/21/2019 13:09,11/16/2019 21:36,0,2096.4333,2096.4333,1,Vertical,10,215,0.813,1,1,months3
09a8e677404fe1908a1880b2f4,8/21/2019 13:09,11/16/2019 21:36,0,2096.4333,2096.4333,1,Vertical,4,216,1.513,1,1,months3
09a8e677404fe1908a1880b2f4,8/21/2019 13:09,11/16/2019 21:36,0,2096.4333,2096.4333,1,Horizontal,0,217,1.351,1,1,months3
09a8e677404fe1908a1880b2f4,8/21/2019 13:09,11/16/2019 21:36,0,2096.4333,2096.4333,1,Horizontal,-4,218,0.583,0,1,months3
09a8e677404fe1908a1880b2f4,8/21/2019 13:09,11/16/2019 21:36,0,2096.4333,2096.4333,1,Horizontal,10,219,0.627,1,1,months3
09a8e677404fe1908a1880b2f4,8/21/2019 13:09,11/16/2019 21:36,0,2096.4333,2096.4333,1,Vertical,2,220,0.991,1,1,months3
09a8e677404fe1908a1880b2f4,8/21/2019 13:09,11/16/2019 21:36,0,2096.4333,2096.4333,1,Vertical,-4,221,1.112,1,1,months3
09a8e677404fe1908a1880b2f4,8/21/2019 13:09,11/16/2019 21:36,0,2096.4333,2096.4333,1,Vertical,-2,222,0.906,0,1,months3
09a8e677404fe1908a1880b2f4,8/21/2019 13:09,11/16/2019 21:36,0,2096.4333,2096.4333,1,Horizontal,0,223,2.669,1,1,months3
09a8e677404fe1908a1880b2f4,8/21/2019 13:09,11/16/2019 21:36,0,2096.4333,2096.4333,1,Horizontal,10,224,0.655,1,1,months3
09a8e677404fe1908a1880b2f4,8/21/2019 13:09,11/16/2019 21:36,0,2096.4333,2096.4333,1,Horizontal,-10,225,0.612,0,1,months3
09a8e677404fe1908a1880b2f4,8/21/2019 13:09,11/16/2019 21:36,0,2096.4333,2096.4333,1,Vertical,0,226,1.237,1,1,months3
09a8e677404fe1908a1880b2f4,8/21/2019 13:09,11/16/2019 21:36,0,2096.4333,2096.4333,1,Vertical,6,227,0.781,1,1,months3
09a8e677404fe1908a1880b2f4,8/21/2019 13:09,11/16/2019 21:36,0,2096.4333,2096.4333,1,Vertical,6,228,0.947,1,1,months3
09a8e677404fe1908a1880b2f4,8/21/2019 13:09,11/16/2019 21:36,0,2096.4333,2096.4333,1,Horizontal,-10,229,0.795,0,1,months3
09a8e677404fe1908a1880b2f4,8/21/2019 13:09,11/16/2019 21:36,0,2096.4333,2096.4333,1,Horizontal,10,230,0.629,1,1,months3
09a8e677404fe1908a1880b2f4,8/21/2019 13:09,11/16/2019 21:36,0,2096.4333,2096.4333,1,Horizontal,4,231,0.89,1,1,months3
09a8e677404fe1908a1880b2f4,8/21/2019 13:09,11/16/2019 21:36,0,2096.4333,2096.4333,1,Vertical,0,232,0.91,1,1,months3
09a8e677404fe1908a1880b2f4,8/21/2019 13:09,11/16/2019 21:36,0,2096.4333,2096.4333,1,Vertical,-6,233,2.011,0,1,months3
09a8e677404fe1908a1880b2f4,8/21/2019 13:09,11/16/2019 21:36,0,2096.4333,2096.4333,1,Vertical,-2,234,1.903,1,1,months3
09a8e677404fe1908a1880b2f4,8/21/2019 13:09,11/16/2019 21:36,0,2096.4333,2096.4333,1,Horizontal,-2,235,1.877,0,1,months3
09a8e677404fe1908a1880b2f4,8/21/2019 13:09,11/16/2019 21:36,0,2096.4333,2096.4333,1,Horizontal,-4,236,1.123,0,1,months3
09a8e677404fe1908a1880b2f4,8/21/2019 13:09,11/16/2019 21:36,0,2096.4333,2096.4333,1,Horizontal,-6,237,0.809,0,1,months3
09a8e677404fe1908a1880b2f4,8/21/2019 13:09,11/16/2019 21:36,0,2096.4333,2096.4333,1,Vertical,-10,238,1.212,0,1,months3
09a8e677404fe1908a1880b2f4,8/21/2019 13:09,11/16/2019 21:36,0,2096.4333,2096.4333,1,Vertical,10,239,0.754,1,1,months3
09a8e677404fe1908a1880b2f4,8/21/2019 13:09,11/16/2019 21:36,0,2096.4333,2096.4333,1,Vertical,-10,240,0.778,0,1,months3
09a8e677404fe1908a1880b2f4,8/21/2019 13:09,11/16/2019 21:36,0,2096.4333,2096.4333,1,Horizontal,10,241,0.741,1,1,months3
09a8e677404fe1908a1880b2f4,8/21/2019 13:09,11/16/2019 21:36,0,2096.4333,2096.4333,1,Horizontal,-6,242,0.55,0,1,months3
09a8e677404fe1908a1880b2f4,8/21/2019 13:09,11/16/2019 21:36,0,2096.4333,2096.4333,1,Horizontal,-10,243,0.609,0,1,months3
09a8e677404fe1908a1880b2f4,8/21/2019 13:09,11/16/2019 21:36,0,2096.4333,2096.4333,1,Vertical,-4,244,1.215,1,1,months3
09a8e677404fe1908a1880b2f4,8/21/2019 13:09,11/16/2019 21:36,0,2096.4333,2096.4333,1,Vertical,10,245,1.047,1,1,months3
09a8e677404fe1908a1880b2f4,8/21/2019 13:09,11/16/2019 21:36,0,2096.4333,2096.4333,1,Vertical,-10,246,0.771,0,1,months3
09a8e677404fe1908a1880b2f4,8/21/2019 13:09,11/16/2019 21:36,0,2096.4333,2096.4333,1,Horizontal,0,247,0.982,1,1,months3
09a8e677404fe1908a1880b2f4,8/21/2019 13:09,11/16/2019 21:36,0,2096.4333,2096.4333,1,Horizontal,-4,248,0.727,0,1,months3
09a8e677404fe1908a1880b2f4,8/21/2019 13:09,11/16/2019 21:36,0,2096.4333,2096.4333,1,Horizontal,-2,249,1.213,0,1,months3
09a8e677404fe1908a1880b2f4,8/21/2019 13:09,11/16/2019 21:36,0,2096.4333,2096.4333,1,Vertical,2,250,1.245,1,1,months3
09a8e677404fe1908a1880b2f4,8/21/2019 13:09,11/16/2019 21:36,0,2096.4333,2096.4333,1,Vertical,-4,251,1.629,1,1,months3
09a8e677404fe1908a1880b2f4,8/21/2019 13:09,11/16/2019 21:36,0,2096.4333,2096.4333,1,Vertical,6,252,0.676,1,1,months3
09a8e677404fe1908a1880b2f4,8/21/2019 13:09,11/16/2019 21:36,0,2096.4333,2096.4333,1,Horizontal,0,253,1.504,1,1,months3
09a8e677404fe1908a1880b2f4,8/21/2019 13:09,11/16/2019 21:36,0,2096.4333,2096.4333,1,Horizontal,-2,254,1.193,0,1,months3
09a8e677404fe1908a1880b2f4,8/21/2019 13:09,11/16/2019 21:36,0,2096.4333,2096.4333,1,Horizontal,10,255,0.696,1,1,months3
09a8e677404fe1908a1880b2f4,8/21/2019 13:09,11/16/2019 21:36,0,2096.4333,2096.4333,1,Vertical,0,256,1.095,1,1,months3
09a8e677404fe1908a1880b2f4,8/21/2019 13:09,11/16/2019 21:36,0,2096.4333,2096.4333,1,Vertical,2,257,1.268,1,1,months3
09a8e677404fe1908a1880b2f4,8/21/2019 13:09,11/16/2019 21:36,0,2096.4333,2096.4333,1,Vertical,-10,258,0.804,0,1,months3
09a8e677404fe1908a1880b2f4,8/21/2019 13:09,11/16/2019 21:36,0,2096.4333,2096.4333,1,Horizontal,4,259,0.8,1,1,months3
09a8e677404fe1908a1880b2f4,8/21/2019 13:09,11/16/2019 21:36,0,2096.4333,2096.4333,1,Horizontal,-8,260,0.619,0,1,months3
09a8e677404fe1908a1880b2f4,8/21/2019 13:09,11/16/2019 21:36,0,2096.4333,2096.4333,1,Horizontal,4,261,1.085,1,1,months3
09a8e677404fe1908a1880b2f4,8/21/2019 13:09,11/16/2019 21:36,0,2096.4333,2096.4333,1,Vertical,6,262,0.643,1,1,months3
09a8e677404fe1908a1880b2f4,8/21/2019 13:09,11/16/2019 21:36,0,2096.4333,2096.4333,1,Vertical,10,263,0.635,1,1,months3
09a8e677404fe1908a1880b2f4,8/21/2019 13:09,11/16/2019 21:36,0,2096.4333,2096.4333,1,Vertical,-2,264,1.563,1,1,months3
09a8e677404fe1908a1880b2f4,8/21/2019 13:09,11/16/2019 21:36,0,2096.4333,2096.4333,1,Horizontal,0,265,2.706,0,1,months3
09a8e677404fe1908a1880b2f4,8/21/2019 13:09,11/16/2019 21:36,0,2096.4333,2096.4333,1,Horizontal,4,266,0.991,1,1,months3
09a8e677404fe1908a1880b2f4,8/21/2019 13:09,11/16/2019 21:36,0,2096.4333,2096.4333,1,Horizontal,-4,267,0.582,0,1,months3
09a8e677404fe1908a1880b2f4,8/21/2019 13:09,11/16/2019 21:36,0,2096.4333,2096.4333,1,Vertical,0,268,0.682,1,1,months3
09a8e677404fe1908a1880b2f4,8/21/2019 13:09,11/16/2019 21:36,0,2096.4333,2096.4333,1,Vertical,-2,269,1.013,1,1,months3
09a8e677404fe1908a1880b2f4,8/21/2019 13:09,11/16/2019 21:36,0,2096.4333,2096.4333,1,Vertical,4,270,1.334,1,1,months3
09a8e677404fe1908a1880b2f4,8/21/2019 13:09,11/16/2019 21:36,0,2096.4333,2096.4333,1,Horizontal,-8,271,0.825,0,1,months3
09a8e677404fe1908a1880b2f4,8/21/2019 13:09,11/16/2019 21:36,0,2096.4333,2096.4333,1,Horizontal,-8,272,0.906,0,1,months3
09a8e677404fe1908a1880b2f4,8/21/2019 13:09,11/16/2019 21:36,0,2096.4333,2096.4333,1,Horizontal,6,273,0.936,1,1,months3
09a8e677404fe1908a1880b2f4,8/21/2019 13:09,11/16/2019 21:36,0,2096.4333,2096.4333,1,Vertical,-10,274,0.758,0,1,months3
09a8e677404fe1908a1880b2f4,8/21/2019 13:09,11/16/2019 21:36,0,2096.4333,2096.4333,1,Vertical,2,275,0.905,1,1,months3
09a8e677404fe1908a1880b2f4,8/21/2019 13:09,11/16/2019 21:36,0,2096.4333,2096.4333,1,Vertical,-2,276,1.655,1,1,months3
09a8e677404fe1908a1880b2f4,8/21/2019 13:09,11/16/2019 21:36,0,2096.4333,2096.4333,1,Horizontal,0,277,2.874,1,1,months3
09a8e677404fe1908a1880b2f4,8/21/2019 13:09,11/16/2019 21:36,0,2096.4333,2096.4333,1,Horizontal,-4,278,0.632,0,1,months3
09a8e677404fe1908a1880b2f4,8/21/2019 13:09,11/16/2019 21:36,0,2096.4333,2096.4333,1,Horizontal,-6,279,0.729,0,1,months3
09a8e677404fe1908a1880b2f4,8/21/2019 13:09,11/16/2019 21:36,0,2096.4333,2096.4333,1,Vertical,0,280,0.995,1,1,months3
09a8e677404fe1908a1880b2f4,8/21/2019 13:09,11/16/2019 21:36,0,2096.4333,2096.4333,1,Vertical,10,281,0.706,1,1,months3
09a8e677404fe1908a1880b2f4,8/21/2019 13:09,11/16/2019 21:36,0,2096.4333,2096.4333,1,Vertical,-4,282,1.241,0,1,months3
09a8e677404fe1908a1880b2f4,8/21/2019 13:09,11/16/2019 21:36,0,2096.4333,2096.4333,1,Horizontal,4,283,0.766,1,1,months3
09a8e677404fe1908a1880b2f4,8/21/2019 13:09,11/16/2019 21:36,0,2096.4333,2096.4333,1,Horizontal,6,284,0.841,1,1,months3
09a8e677404fe1908a1880b2f4,8/21/2019 13:09,11/16/2019 21:36,0,2096.4333,2096.4333,1,Horizontal,10,285,0.804,1,1,months3
09a8e677404fe1908a1880b2f4,8/21/2019 13:09,11/16/2019 21:36,0,2096.4333,2096.4333,1,Vertical,0,286,0.867,1,1,months3
09a8e677404fe1908a1880b2f4,8/21/2019 13:09,11/16/2019 21:36,0,2096.4333,2096.4333,1,Vertical,-8,287,0.994,0,1,months3
09a8e677404fe1908a1880b2f4,8/21/2019 13:09,11/16/2019 21:36,0,2096.4333,2096.4333,1,Vertical,8,288,0.77,1,1,months3
09a8e677404fe1908a1880b2f4,8/21/2019 13:09,11/16/2019 21:36,0,2096.4333,2096.4333,1,Horizontal,0,289,0.714,0,1,months3
09a8e677404fe1908a1880b2f4,8/21/2019 13:09,11/16/2019 21:36,0,2096.4333,2096.4333,1,Horizontal,2,290,0.739,1,1,months3
09a8e677404fe1908a1880b2f4,8/21/2019 13:09,11/16/2019 21:36,0,2096.4333,2096.4333,1,Horizontal,-2,291,1.478,0,1,months3
09a8e677404fe1908a1880b2f4,8/21/2019 13:09,11/16/2019 21:36,0,2096.4333,2096.4333,1,Vertical,4,292,0.756,1,1,months3
09a8e677404fe1908a1880b2f4,8/21/2019 13:09,11/16/2019 21:36,0,2096.4333,2096.4333,1,Vertical,-6,293,1.478,1,1,months3
09a8e677404fe1908a1880b2f4,8/21/2019 13:09,11/16/2019 21:36,0,2096.4333,2096.4333,1,Vertical,4,294,0.87,1,1,months3
09a8e677404fe1908a1880b2f4,8/21/2019 13:09,11/16/2019 21:36,0,2096.4333,2096.4333,1,Horizontal,-2,295,2.61,0,1,months3
09a8e677404fe1908a1880b2f4,8/21/2019 13:09,11/16/2019 21:36,0,2096.4333,2096.4333,1,Horizontal,-8,296,0.857,0,1,months3
09a8e677404fe1908a1880b2f4,8/21/2019 13:09,11/16/2019 21:36,0,2096.4333,2096.4333,1,Horizontal,2,297,0.765,1,1,months3
09a8e677404fe1908a1880b2f4,8/21/2019 13:09,11/16/2019 21:36,0,2096.4333,2096.4333,1,Vertical,0,298,0.877,1,1,months3
09a8e677404fe1908a1880b2f4,8/21/2019 13:09,11/16/2019 21:36,0,2096.4333,2096.4333,1,Vertical,4,299,0.826,1,1,months3
09a8e677404fe1908a1880b2f4,8/21/2019 13:09,11/16/2019 21:36,0,2096.4333,2096.4333,1,Vertical,6,300,0.698,1,1,months3
09a8e677404fe1908a1880b2f4,8/21/2019 13:09,11/16/2019 21:36,0,2096.4333,2096.4333,1,Horizontal,0,301,1.435,1,1,months3
09a8e677404fe1908a1880b2f4,8/21/2019 13:09,11/16/2019 21:36,0,2096.4333,2096.4333,1,Horizontal,6,302,0.624,1,1,months3
09a8e677404fe1908a1880b2f4,8/21/2019 13:09,11/16/2019 21:36,0,2096.4333,2096.4333,1,Horizontal,8,303,0.66,1,1,months3
09a8e677404fe1908a1880b2f4,8/21/2019 13:09,11/16/2019 21:36,0,2096.4333,2096.4333,1,Vertical,0,304,2.521,1,1,months3
09a8e677404fe1908a1880b2f4,8/21/2019 13:09,11/16/2019 21:36,0,2096.4333,2096.4333,1,Vertical,8,305,0.871,1,1,months3
09a8e677404fe1908a1880b2f4,8/21/2019 13:09,11/16/2019 21:36,0,2096.4333,2096.4333,1,Vertical,8,306,1.014,1,1,months3
09a8e677404fe1908a1880b2f4,8/21/2019 13:09,11/16/2019 21:36,0,2096.4333,2096.4333,1,Horizontal,0,307,3.331,1,1,months3
09a8e677404fe1908a1880b2f4,8/21/2019 13:09,11/16/2019 21:36,0,2096.4333,2096.4333,1,Horizontal,-10,308,0.597,0,1,months3
09a8e677404fe1908a1880b2f4,8/21/2019 13:09,11/16/2019 21:36,0,2096.4333,2096.4333,1,Horizontal,10,309,0.59,1,1,months3
09a8e677404fe1908a1880b2f4,8/21/2019 13:09,11/16/2019 21:36,0,2096.4333,2096.4333,1,Vertical,-6,310,1.787,0,1,months3
09a8e677404fe1908a1880b2f4,8/21/2019 13:09,11/16/2019 21:36,0,2096.4333,2096.4333,1,Vertical,-8,311,1.035,0,1,months3
09a8e677404fe1908a1880b2f4,8/21/2019 13:09,11/16/2019 21:36,0,2096.4333,2096.4333,1,Vertical,-2,312,1.415,1,1,months3
09a8e677404fe1908a1880b2f4,8/21/2019 13:09,11/16/2019 21:36,0,2096.4333,2096.4333,1,Horizontal,8,313,1.369,1,1,months3
09a8e677404fe1908a1880b2f4,8/21/2019 13:09,11/16/2019 21:36,0,2096.4333,2096.4333,1,Horizontal,-8,314,0.58,0,1,months3
09a8e677404fe1908a1880b2f4,8/21/2019 13:09,11/16/2019 21:36,0,2096.4333,2096.4333,1,Horizontal,-2,315,0.892,0,1,months3
09a8e677404fe1908a1880b2f4,8/21/2019 13:09,11/16/2019 21:36,0,2096.4333,2096.4333,1,Vertical,0,316,1.543,1,1,months3
09a8e677404fe1908a1880b2f4,8/21/2019 13:09,11/16/2019 21:36,0,2096.4333,2096.4333,1,Vertical,8,317,1.051,1,1,months3
09a8e677404fe1908a1880b2f4,8/21/2019 13:09,11/16/2019 21:36,0,2096.4333,2096.4333,1,Vertical,-8,318,0.716,0,1,months3
09a8e677404fe1908a1880b2f4,8/21/2019 13:09,11/16/2019 21:36,0,2096.4333,2096.4333,1,Horizontal,-6,319,0.694,0,1,months3
09a8e677404fe1908a1880b2f4,8/21/2019 13:09,11/16/2019 21:36,0,2096.4333,2096.4333,1,Horizontal,2,320,0.709,1,1,months3
09a8e677404fe1908a1880b2f4,8/21/2019 13:09,11/16/2019 21:36,0,2096.4333,2096.4333,1,Horizontal,6,321,0.572,1,1,months3
09a8e677404fe1908a1880b2f4,8/21/2019 13:09,11/16/2019 21:36,0,2096.4333,2096.4333,1,Vertical,-10,322,0.747,0,1,months3
09a8e677404fe1908a1880b2f4,8/21/2019 13:09,11/16/2019 21:36,0,2096.4333,2096.4333,1,Vertical,2,323,1.064,1,1,months3
09a8e677404fe1908a1880b2f4,8/21/2019 13:09,11/16/2019 21:36,0,2096.4333,2096.4333,1,Vertical,2,324,0.966,1,1,months3
09a8e677404fe1908a1880b2f4,8/21/2019 13:09,11/16/2019 21:36,0,2096.4333,2096.4333,1,Horizontal,0,325,3.175,1,1,months3
09a8e677404fe1908a1880b2f4,8/21/2019 13:09,11/16/2019 21:36,0,2096.4333,2096.4333,1,Horizontal,8,326,0.737,1,1,months3
09a8e677404fe1908a1880b2f4,8/21/2019 13:09,11/16/2019 21:36,0,2096.4333,2096.4333,1,Horizontal,-4,327,0.609,0,1,months3
09a8e677404fe1908a1880b2f4,8/21/2019 13:09,11/16/2019 21:36,0,2096.4333,2096.4333,1,Vertical,0,328,1.158,1,1,months3
09a8e677404fe1908a1880b2f4,8/21/2019 13:09,11/16/2019 21:36,0,2096.4333,2096.4333,1,Vertical,6,329,0.819,1,1,months3
09a8e677404fe1908a1880b2f4,8/21/2019 13:09,11/16/2019 21:36,0,2096.4333,2096.4333,1,Vertical,6,330,0.803,1,1,months3
09a8e677404fe1908a1880b2f4,8/21/2019 13:09,11/16/2019 21:36,0,2096.4333,2096.4333,1,Horizontal,0,331,2.036,1,1,months3
09a8e677404fe1908a1880b2f4,8/21/2019 13:09,11/16/2019 21:36,0,2096.4333,2096.4333,1,Horizontal,-6,332,0.602,0,1,months3
09a8e677404fe1908a1880b2f4,8/21/2019 13:09,11/16/2019 21:36,0,2096.4333,2096.4333,1,Horizontal,8,333,0.596,1,1,months3
09a8e677404fe1908a1880b2f4,8/21/2019 13:09,11/16/2019 21:36,0,2096.4333,2096.4333,1,Vertical,-6,334,1.585,1,1,months3
09a8e677404fe1908a1880b2f4,8/21/2019 13:09,11/16/2019 21:36,0,2096.4333,2096.4333,1,Vertical,-10,335,1.78,0,1,months3
09a8e677404fe1908a1880b2f4,8/21/2019 13:09,11/16/2019 21:36,0,2096.4333,2096.4333,1,Vertical,-8,336,1.039,0,1,months3
09a8e677404fe1908a1880b2f4,8/21/2019 13:09,11/16/2019 21:36,0,2096.4333,2096.4333,1,Horizontal,-4,337,0.947,0,1,months3
09a8e677404fe1908a1880b2f4,8/21/2019 13:09,11/16/2019 21:36,0,2096.4333,2096.4333,1,Horizontal,-10,338,0.635,0,1,months3
09a8e677404fe1908a1880b2f4,8/21/2019 13:09,11/16/2019 21:36,0,2096.4333,2096.4333,1,Horizontal,2,339,0.695,1,1,months3
09a8e677404fe1908a1880b2f4,8/21/2019 13:09,11/16/2019 21:36,0,2096.4333,2096.4333,1,Vertical,0,340,0.779,1,1,months3
09a8e677404fe1908a1880b2f4,8/21/2019 13:09,11/16/2019 21:36,0,2096.4333,2096.4333,1,Vertical,-4,341,2.2,0,1,months3
09a8e677404fe1908a1880b2f4,8/21/2019 13:09,11/16/2019 21:36,0,2096.4333,2096.4333,1,Vertical,-4,342,0.892,0,1,months3
09a8e677404fe1908a1880b2f4,8/21/2019 13:09,11/16/2019 21:36,0,2096.4333,2096.4333,1,Horizontal,4,343,0.795,1,1,months3
09a8e677404fe1908a1880b2f4,8/21/2019 13:09,11/16/2019 21:36,0,2096.4333,2096.4333,1,Horizontal,-6,344,0.541,0,1,months3
09a8e677404fe1908a1880b2f4,8/21/2019 13:09,11/16/2019 21:36,0,2096.4333,2096.4333,1,Horizontal,-10,345,0.53,0,1,months3
09a8e677404fe1908a1880b2f4,8/21/2019 13:09,11/16/2019 21:36,0,2096.4333,2096.4333,1,Vertical,-6,346,0.994,0,1,months3
09a8e677404fe1908a1880b2f4,8/21/2019 13:09,11/16/2019 21:36,0,2096.4333,2096.4333,1,Vertical,8,347,0.95,1,1,months3
09a8e677404fe1908a1880b2f4,8/21/2019 13:09,11/16/2019 21:36,0,2096.4333,2096.4333,1,Vertical,4,348,0.855,1,1,months3
09a8e677404fe1908a1880b2f4,8/21/2019 13:09,11/16/2019 21:36,0,2096.4333,2096.4333,1,Horizontal,2,349,0.902,1,1,months3
09a8e677404fe1908a1880b2f4,8/21/2019 13:09,11/16/2019 21:36,0,2096.4333,2096.4333,1,Horizontal,8,350,0.568,1,1,months3
09a8e677404fe1908a1880b2f4,8/21/2019 13:09,11/16/2019 21:36,0,2096.4333,2096.4333,1,Horizontal,-10,351,0.556,0,1,months3
09a8e677404fe1908a1880b2f4,8/21/2019 13:09,11/16/2019 21:36,0,2096.4333,2096.4333,1,Vertical,-8,352,0.669,0,1,months3
09a8e677404fe1908a1880b2f4,8/21/2019 13:09,11/16/2019 21:36,0,2096.4333,2096.4333,1,Vertical,-2,353,1.106,1,1,months3
09a8e677404fe1908a1880b2f4,8/21/2019 13:09,11/16/2019 21:36,0,2096.4333,2096.4333,1,Vertical,-6,354,2.309,0,1,months3
09a8e677404fe1908a1880b2f4,8/21/2019 13:09,11/16/2019 21:36,0,2096.4333,2096.4333,1,Horizontal,0,355,2.301,1,1,months3
09a8e677404fe1908a1880b2f4,8/21/2019 13:09,11/16/2019 21:36,0,2096.4333,2096.4333,1,Horizontal,10,356,0.553,1,1,months3
09a8e677404fe1908a1880b2f4,8/21/2019 13:09,11/16/2019 21:36,0,2096.4333,2096.4333,1,Horizontal,6,357,0.625,1,1,months3
