ID,endDate,startDate,didSess3,hourDiff21,hourDiffPrev,session,task,dev,trialNum,rt,response,subj_idx,timeCondition
12cb2930f1f85b91daf5dd9158,7/25/2019 19:48,7/25/2019 21:08,1,1.3333,1.3333,1,Horizontal,10,1,1.185,1,0,hour
12cb2930f1f85b91daf5dd9158,7/25/2019 19:48,7/25/2019 21:08,1,1.3333,1.3333,1,Horizontal,-6,2,0.683,0,0,hour
12cb2930f1f85b91daf5dd9158,7/25/2019 19:48,7/25/2019 21:08,1,1.3333,1.3333,1,Horizontal,-10,3,0.427,0,0,hour
12cb2930f1f85b91daf5dd9158,7/25/2019 19:48,7/25/2019 21:08,1,1.3333,1.3333,1,Vertical,-4,4,0.246,0,0,hour
12cb2930f1f85b91daf5dd9158,7/25/2019 19:48,7/25/2019 21:08,1,1.3333,1.3333,1,Vertical,10,5,0.54,1,0,hour
12cb2930f1f85b91daf5dd9158,7/25/2019 19:48,7/25/2019 21:08,1,1.3333,1.3333,1,Vertical,-10,6,0.564,0,0,hour
12cb2930f1f85b91daf5dd9158,7/25/2019 19:48,7/25/2019 21:08,1,1.3333,1.3333,1,Horizontal,0,7,1.533,0,0,hour
12cb2930f1f85b91daf5dd9158,7/25/2019 19:48,7/25/2019 21:08,1,1.3333,1.3333,1,Horizontal,-4,8,0.646,0,0,hour
12cb2930f1f85b91daf5dd9158,7/25/2019 19:48,7/25/2019 21:08,1,1.3333,1.3333,1,Horizontal,-2,9,0.836,0,0,hour
12cb2930f1f85b91daf5dd9158,7/25/2019 19:48,7/25/2019 21:08,1,1.3333,1.3333,1,Vertical,2,10,1.046,0,0,hour
12cb2930f1f85b91daf5dd9158,7/25/2019 19:48,7/25/2019 21:08,1,1.3333,1.3333,1,Vertical,-4,11,0.805,0,0,hour
12cb2930f1f85b91daf5dd9158,7/25/2019 19:48,7/25/2019 21:08,1,1.3333,1.3333,1,Vertical,6,12,1.519,1,0,hour
12cb2930f1f85b91daf5dd9158,7/25/2019 19:48,7/25/2019 21:08,1,1.3333,1.3333,1,Horizontal,0,13,2.573,0,0,hour
12cb2930f1f85b91daf5dd9158,7/25/2019 19:48,7/25/2019 21:08,1,1.3333,1.3333,1,Horizontal,-2,14,1.035,0,0,hour
12cb2930f1f85b91daf5dd9158,7/25/2019 19:48,7/25/2019 21:08,1,1.3333,1.3333,1,Horizontal,10,15,0.697,1,0,hour
12cb2930f1f85b91daf5dd9158,7/25/2019 19:48,7/25/2019 21:08,1,1.3333,1.3333,1,Vertical,0,16,2.735,1,0,hour
12cb2930f1f85b91daf5dd9158,7/25/2019 19:48,7/25/2019 21:08,1,1.3333,1.3333,1,Vertical,2,17,1.586,1,0,hour
12cb2930f1f85b91daf5dd9158,7/25/2019 19:48,7/25/2019 21:08,1,1.3333,1.3333,1,Vertical,-10,18,0.736,0,0,hour
12cb2930f1f85b91daf5dd9158,7/25/2019 19:48,7/25/2019 21:08,1,1.3333,1.3333,1,Horizontal,4,19,0.629,1,0,hour
12cb2930f1f85b91daf5dd9158,7/25/2019 19:48,7/25/2019 21:08,1,1.3333,1.3333,1,Horizontal,-8,20,0.543,0,0,hour
12cb2930f1f85b91daf5dd9158,7/25/2019 19:48,7/25/2019 21:08,1,1.3333,1.3333,1,Horizontal,4,21,0.506,1,0,hour
12cb2930f1f85b91daf5dd9158,7/25/2019 19:48,7/25/2019 21:08,1,1.3333,1.3333,1,Vertical,6,22,0.736,1,0,hour
12cb2930f1f85b91daf5dd9158,7/25/2019 19:48,7/25/2019 21:08,1,1.3333,1.3333,1,Vertical,10,23,0.573,1,0,hour
12cb2930f1f85b91daf5dd9158,7/25/2019 19:48,7/25/2019 21:08,1,1.3333,1.3333,1,Vertical,-2,24,0.958,0,0,hour
12cb2930f1f85b91daf5dd9158,7/25/2019 19:48,7/25/2019 21:08,1,1.3333,1.3333,1,Horizontal,0,25,0.425,0,0,hour
12cb2930f1f85b91daf5dd9158,7/25/2019 19:48,7/25/2019 21:08,1,1.3333,1.3333,1,Horizontal,4,26,0.522,1,0,hour
12cb2930f1f85b91daf5dd9158,7/25/2019 19:48,7/25/2019 21:08,1,1.3333,1.3333,1,Horizontal,-4,27,0.549,0,0,hour
12cb2930f1f85b91daf5dd9158,7/25/2019 19:48,7/25/2019 21:08,1,1.3333,1.3333,1,Vertical,0,28,4.174,1,0,hour
12cb2930f1f85b91daf5dd9158,7/25/2019 19:48,7/25/2019 21:08,1,1.3333,1.3333,1,Vertical,-2,29,1.411,0,0,hour
12cb2930f1f85b91daf5dd9158,7/25/2019 19:48,7/25/2019 21:08,1,1.3333,1.3333,1,Vertical,4,30,1.374,1,0,hour
12cb2930f1f85b91daf5dd9158,7/25/2019 19:48,7/25/2019 21:08,1,1.3333,1.3333,1,Horizontal,-8,31,0.645,0,0,hour
12cb2930f1f85b91daf5dd9158,7/25/2019 19:48,7/25/2019 21:08,1,1.3333,1.3333,1,Horizontal,-8,32,0.55,0,0,hour
12cb2930f1f85b91daf5dd9158,7/25/2019 19:48,7/25/2019 21:08,1,1.3333,1.3333,1,Horizontal,6,33,0.528,1,0,hour
12cb2930f1f85b91daf5dd9158,7/25/2019 19:48,7/25/2019 21:08,1,1.3333,1.3333,1,Vertical,-10,34,0.664,0,0,hour
12cb2930f1f85b91daf5dd9158,7/25/2019 19:48,7/25/2019 21:08,1,1.3333,1.3333,1,Vertical,2,35,0.815,1,0,hour
12cb2930f1f85b91daf5dd9158,7/25/2019 19:48,7/25/2019 21:08,1,1.3333,1.3333,1,Vertical,-2,36,1.411,0,0,hour
12cb2930f1f85b91daf5dd9158,7/25/2019 19:48,7/25/2019 21:08,1,1.3333,1.3333,1,Horizontal,0,37,0.444,1,0,hour
12cb2930f1f85b91daf5dd9158,7/25/2019 19:48,7/25/2019 21:08,1,1.3333,1.3333,1,Horizontal,-4,38,0.837,0,0,hour
12cb2930f1f85b91daf5dd9158,7/25/2019 19:48,7/25/2019 21:08,1,1.3333,1.3333,1,Horizontal,-6,39,0.565,0,0,hour
12cb2930f1f85b91daf5dd9158,7/25/2019 19:48,7/25/2019 21:08,1,1.3333,1.3333,1,Vertical,0,40,3.255,0,0,hour
12cb2930f1f85b91daf5dd9158,7/25/2019 19:48,7/25/2019 21:08,1,1.3333,1.3333,1,Vertical,10,41,0.655,1,0,hour
12cb2930f1f85b91daf5dd9158,7/25/2019 19:48,7/25/2019 21:08,1,1.3333,1.3333,1,Vertical,-4,42,0.784,0,0,hour
12cb2930f1f85b91daf5dd9158,7/25/2019 19:48,7/25/2019 21:08,1,1.3333,1.3333,1,Horizontal,4,43,0.756,1,0,hour
12cb2930f1f85b91daf5dd9158,7/25/2019 19:48,7/25/2019 21:08,1,1.3333,1.3333,1,Horizontal,6,44,0.775,1,0,hour
12cb2930f1f85b91daf5dd9158,7/25/2019 19:48,7/25/2019 21:08,1,1.3333,1.3333,1,Horizontal,10,45,0.537,1,0,hour
12cb2930f1f85b91daf5dd9158,7/25/2019 19:48,7/25/2019 21:08,1,1.3333,1.3333,1,Vertical,0,46,1.601,1,0,hour
12cb2930f1f85b91daf5dd9158,7/25/2019 19:48,7/25/2019 21:08,1,1.3333,1.3333,1,Vertical,-8,47,0.671,0,0,hour
12cb2930f1f85b91daf5dd9158,7/25/2019 19:48,7/25/2019 21:08,1,1.3333,1.3333,1,Vertical,8,48,0.734,1,0,hour
12cb2930f1f85b91daf5dd9158,7/25/2019 19:48,7/25/2019 21:08,1,1.3333,1.3333,1,Horizontal,0,49,4.963,1,0,hour
12cb2930f1f85b91daf5dd9158,7/25/2019 19:48,7/25/2019 21:08,1,1.3333,1.3333,1,Horizontal,2,50,1.348,1,0,hour
12cb2930f1f85b91daf5dd9158,7/25/2019 19:48,7/25/2019 21:08,1,1.3333,1.3333,1,Horizontal,-2,51,0.575,0,0,hour
12cb2930f1f85b91daf5dd9158,7/25/2019 19:48,7/25/2019 21:08,1,1.3333,1.3333,1,Vertical,4,52,2.21,1,0,hour
12cb2930f1f85b91daf5dd9158,7/25/2019 19:48,7/25/2019 21:08,1,1.3333,1.3333,1,Vertical,-6,53,0.913,0,0,hour
12cb2930f1f85b91daf5dd9158,7/25/2019 19:48,7/25/2019 21:08,1,1.3333,1.3333,1,Vertical,4,54,1.934,0,0,hour
12cb2930f1f85b91daf5dd9158,7/25/2019 19:48,7/25/2019 21:08,1,1.3333,1.3333,1,Horizontal,-2,55,0.995,0,0,hour
12cb2930f1f85b91daf5dd9158,7/25/2019 19:48,7/25/2019 21:08,1,1.3333,1.3333,1,Horizontal,-8,56,0.576,0,0,hour
12cb2930f1f85b91daf5dd9158,7/25/2019 19:48,7/25/2019 21:08,1,1.3333,1.3333,1,Horizontal,2,57,0.864,1,0,hour
12cb2930f1f85b91daf5dd9158,7/25/2019 19:48,7/25/2019 21:08,1,1.3333,1.3333,1,Vertical,0,58,4.205,1,0,hour
12cb2930f1f85b91daf5dd9158,7/25/2019 19:48,7/25/2019 21:08,1,1.3333,1.3333,1,Vertical,4,59,1.591,1,0,hour
12cb2930f1f85b91daf5dd9158,7/25/2019 19:48,7/25/2019 21:08,1,1.3333,1.3333,1,Vertical,6,60,0.679,1,0,hour
12cb2930f1f85b91daf5dd9158,7/25/2019 19:48,7/25/2019 21:08,1,1.3333,1.3333,1,Horizontal,0,61,2.46,1,0,hour
12cb2930f1f85b91daf5dd9158,7/25/2019 19:48,7/25/2019 21:08,1,1.3333,1.3333,1,Horizontal,6,62,0.561,1,0,hour
12cb2930f1f85b91daf5dd9158,7/25/2019 19:48,7/25/2019 21:08,1,1.3333,1.3333,1,Horizontal,8,63,0.496,1,0,hour
12cb2930f1f85b91daf5dd9158,7/25/2019 19:48,7/25/2019 21:08,1,1.3333,1.3333,1,Vertical,0,64,0.96,0,0,hour
12cb2930f1f85b91daf5dd9158,7/25/2019 19:48,7/25/2019 21:08,1,1.3333,1.3333,1,Vertical,8,65,0.892,1,0,hour
12cb2930f1f85b91daf5dd9158,7/25/2019 19:48,7/25/2019 21:08,1,1.3333,1.3333,1,Vertical,8,66,0.633,1,0,hour
12cb2930f1f85b91daf5dd9158,7/25/2019 19:48,7/25/2019 21:08,1,1.3333,1.3333,1,Horizontal,0,67,1.176,0,0,hour
12cb2930f1f85b91daf5dd9158,7/25/2019 19:48,7/25/2019 21:08,1,1.3333,1.3333,1,Horizontal,-10,68,0.594,0,0,hour
12cb2930f1f85b91daf5dd9158,7/25/2019 19:48,7/25/2019 21:08,1,1.3333,1.3333,1,Horizontal,10,69,0.552,1,0,hour
12cb2930f1f85b91daf5dd9158,7/25/2019 19:48,7/25/2019 21:08,1,1.3333,1.3333,1,Vertical,-6,70,0.78,0,0,hour
12cb2930f1f85b91daf5dd9158,7/25/2019 19:48,7/25/2019 21:08,1,1.3333,1.3333,1,Vertical,-8,71,1.24,0,0,hour
12cb2930f1f85b91daf5dd9158,7/25/2019 19:48,7/25/2019 21:08,1,1.3333,1.3333,1,Vertical,-2,72,1.089,0,0,hour
12cb2930f1f85b91daf5dd9158,7/25/2019 19:48,7/25/2019 21:08,1,1.3333,1.3333,1,Horizontal,8,73,0.578,1,0,hour
12cb2930f1f85b91daf5dd9158,7/25/2019 19:48,7/25/2019 21:08,1,1.3333,1.3333,1,Horizontal,-8,74,0.493,0,0,hour
12cb2930f1f85b91daf5dd9158,7/25/2019 19:48,7/25/2019 21:08,1,1.3333,1.3333,1,Horizontal,-2,75,0.577,0,0,hour
12cb2930f1f85b91daf5dd9158,7/25/2019 19:48,7/25/2019 21:08,1,1.3333,1.3333,1,Vertical,0,76,2.612,0,0,hour
12cb2930f1f85b91daf5dd9158,7/25/2019 19:48,7/25/2019 21:08,1,1.3333,1.3333,1,Vertical,8,77,0.806,1,0,hour
12cb2930f1f85b91daf5dd9158,7/25/2019 19:48,7/25/2019 21:08,1,1.3333,1.3333,1,Vertical,-8,78,0.684,0,0,hour
12cb2930f1f85b91daf5dd9158,7/25/2019 19:48,7/25/2019 21:08,1,1.3333,1.3333,1,Horizontal,-6,79,0.533,0,0,hour
12cb2930f1f85b91daf5dd9158,7/25/2019 19:48,7/25/2019 21:08,1,1.3333,1.3333,1,Horizontal,2,80,1.071,1,0,hour
12cb2930f1f85b91daf5dd9158,7/25/2019 19:48,7/25/2019 21:08,1,1.3333,1.3333,1,Horizontal,6,81,0.616,1,0,hour
12cb2930f1f85b91daf5dd9158,7/25/2019 19:48,7/25/2019 21:08,1,1.3333,1.3333,1,Vertical,-10,82,0.806,0,0,hour
12cb2930f1f85b91daf5dd9158,7/25/2019 19:48,7/25/2019 21:08,1,1.3333,1.3333,1,Vertical,2,83,3.423,0,0,hour
12cb2930f1f85b91daf5dd9158,7/25/2019 19:48,7/25/2019 21:08,1,1.3333,1.3333,1,Vertical,2,84,1.129,1,0,hour
12cb2930f1f85b91daf5dd9158,7/25/2019 19:48,7/25/2019 21:08,1,1.3333,1.3333,1,Horizontal,0,85,2.69,0,0,hour
12cb2930f1f85b91daf5dd9158,7/25/2019 19:48,7/25/2019 21:08,1,1.3333,1.3333,1,Horizontal,8,86,0.69,1,0,hour
12cb2930f1f85b91daf5dd9158,7/25/2019 19:48,7/25/2019 21:08,1,1.3333,1.3333,1,Horizontal,-4,87,0.613,0,0,hour
12cb2930f1f85b91daf5dd9158,7/25/2019 19:48,7/25/2019 21:08,1,1.3333,1.3333,1,Vertical,0,88,1.473,0,0,hour
12cb2930f1f85b91daf5dd9158,7/25/2019 19:48,7/25/2019 21:08,1,1.3333,1.3333,1,Vertical,6,89,1.066,1,0,hour
12cb2930f1f85b91daf5dd9158,7/25/2019 19:48,7/25/2019 21:08,1,1.3333,1.3333,1,Vertical,6,90,0.946,1,0,hour
12cb2930f1f85b91daf5dd9158,7/25/2019 19:48,7/25/2019 21:08,1,1.3333,1.3333,1,Horizontal,0,91,2.992,1,0,hour
12cb2930f1f85b91daf5dd9158,7/25/2019 19:48,7/25/2019 21:08,1,1.3333,1.3333,1,Horizontal,-6,92,0.54,0,0,hour
12cb2930f1f85b91daf5dd9158,7/25/2019 19:48,7/25/2019 21:08,1,1.3333,1.3333,1,Horizontal,8,93,0.501,1,0,hour
12cb2930f1f85b91daf5dd9158,7/25/2019 19:48,7/25/2019 21:08,1,1.3333,1.3333,1,Vertical,-6,94,0.945,0,0,hour
12cb2930f1f85b91daf5dd9158,7/25/2019 19:48,7/25/2019 21:08,1,1.3333,1.3333,1,Vertical,-10,95,0.822,0,0,hour
12cb2930f1f85b91daf5dd9158,7/25/2019 19:48,7/25/2019 21:08,1,1.3333,1.3333,1,Vertical,-8,96,0.625,0,0,hour
12cb2930f1f85b91daf5dd9158,7/25/2019 19:48,7/25/2019 21:08,1,1.3333,1.3333,1,Horizontal,-4,97,0.577,0,0,hour
12cb2930f1f85b91daf5dd9158,7/25/2019 19:48,7/25/2019 21:08,1,1.3333,1.3333,1,Horizontal,-10,98,0.494,0,0,hour
12cb2930f1f85b91daf5dd9158,7/25/2019 19:48,7/25/2019 21:08,1,1.3333,1.3333,1,Horizontal,2,99,0.603,1,0,hour
12cb2930f1f85b91daf5dd9158,7/25/2019 19:48,7/25/2019 21:08,1,1.3333,1.3333,1,Vertical,0,100,1.126,1,0,hour
12cb2930f1f85b91daf5dd9158,7/25/2019 19:48,7/25/2019 21:08,1,1.3333,1.3333,1,Vertical,-4,101,1.261,0,0,hour
12cb2930f1f85b91daf5dd9158,7/25/2019 19:48,7/25/2019 21:08,1,1.3333,1.3333,1,Vertical,-4,102,0.66,0,0,hour
12cb2930f1f85b91daf5dd9158,7/25/2019 19:48,7/25/2019 21:08,1,1.3333,1.3333,1,Horizontal,4,103,0.551,1,0,hour
12cb2930f1f85b91daf5dd9158,7/25/2019 19:48,7/25/2019 21:08,1,1.3333,1.3333,1,Horizontal,-6,104,0.509,0,0,hour
12cb2930f1f85b91daf5dd9158,7/25/2019 19:48,7/25/2019 21:08,1,1.3333,1.3333,1,Horizontal,-10,105,0.496,0,0,hour
12cb2930f1f85b91daf5dd9158,7/25/2019 19:48,7/25/2019 21:08,1,1.3333,1.3333,1,Vertical,-6,106,1.16,0,0,hour
12cb2930f1f85b91daf5dd9158,7/25/2019 19:48,7/25/2019 21:08,1,1.3333,1.3333,1,Vertical,8,107,0.817,1,0,hour
12cb2930f1f85b91daf5dd9158,7/25/2019 19:48,7/25/2019 21:08,1,1.3333,1.3333,1,Vertical,4,108,1.124,1,0,hour
12cb2930f1f85b91daf5dd9158,7/25/2019 19:48,7/25/2019 21:08,1,1.3333,1.3333,1,Horizontal,2,109,0.856,1,0,hour
12cb2930f1f85b91daf5dd9158,7/25/2019 19:48,7/25/2019 21:08,1,1.3333,1.3333,1,Horizontal,8,110,0.675,1,0,hour
12cb2930f1f85b91daf5dd9158,7/25/2019 19:48,7/25/2019 21:08,1,1.3333,1.3333,1,Horizontal,-10,111,0.513,0,0,hour
12cb2930f1f85b91daf5dd9158,7/25/2019 19:48,7/25/2019 21:08,1,1.3333,1.3333,1,Vertical,-8,112,0.626,0,0,hour
12cb2930f1f85b91daf5dd9158,7/25/2019 19:48,7/25/2019 21:08,1,1.3333,1.3333,1,Vertical,-2,113,1.866,0,0,hour
12cb2930f1f85b91daf5dd9158,7/25/2019 19:48,7/25/2019 21:08,1,1.3333,1.3333,1,Vertical,-6,114,0.831,0,0,hour
12cb2930f1f85b91daf5dd9158,7/25/2019 19:48,7/25/2019 21:08,1,1.3333,1.3333,1,Horizontal,0,115,3.899,1,0,hour
12cb2930f1f85b91daf5dd9158,7/25/2019 19:48,7/25/2019 21:08,1,1.3333,1.3333,1,Horizontal,10,116,0.544,1,0,hour
12cb2930f1f85b91daf5dd9158,7/25/2019 19:48,7/25/2019 21:08,1,1.3333,1.3333,1,Horizontal,6,117,0.589,1,0,hour
12cb2930f1f85b91daf5dd9158,7/25/2019 19:48,7/25/2019 21:08,1,1.3333,1.3333,1,Vertical,0,118,3.721,0,0,hour
12cb2930f1f85b91daf5dd9158,7/25/2019 19:48,7/25/2019 21:08,1,1.3333,1.3333,1,Vertical,10,119,0.927,1,0,hour
12cb2930f1f85b91daf5dd9158,7/25/2019 19:48,7/25/2019 21:08,1,1.3333,1.3333,1,Vertical,10,120,0.71,1,0,hour
12cb2930f1f85b91daf5dd9158,7/25/2019 19:48,7/25/2019 21:08,1,1.3333,1.3333,1,Horizontal,6,121,1.046,1,0,hour
12cb2930f1f85b91daf5dd9158,7/25/2019 19:48,7/25/2019 21:08,1,1.3333,1.3333,1,Horizontal,-2,122,0.525,0,0,hour
12cb2930f1f85b91daf5dd9158,7/25/2019 19:48,7/25/2019 21:08,1,1.3333,1.3333,1,Horizontal,4,123,0.53,1,0,hour
12cb2930f1f85b91daf5dd9158,7/25/2019 19:48,7/25/2019 21:08,1,1.3333,1.3333,1,Vertical,0,124,2.187,0,0,hour
12cb2930f1f85b91daf5dd9158,7/25/2019 19:48,7/25/2019 21:08,1,1.3333,1.3333,1,Vertical,6,125,0.73,1,0,hour
12cb2930f1f85b91daf5dd9158,7/25/2019 19:48,7/25/2019 21:08,1,1.3333,1.3333,1,Vertical,-6,126,1.237,0,0,hour
12cb2930f1f85b91daf5dd9158,7/25/2019 19:48,7/25/2019 21:08,1,1.3333,1.3333,1,Horizontal,0,127,1.061,0,0,hour
12cb2930f1f85b91daf5dd9158,7/25/2019 19:48,7/25/2019 21:08,1,1.3333,1.3333,1,Horizontal,6,128,0.538,1,0,hour
12cb2930f1f85b91daf5dd9158,7/25/2019 19:48,7/25/2019 21:08,1,1.3333,1.3333,1,Horizontal,6,129,0.535,1,0,hour
12cb2930f1f85b91daf5dd9158,7/25/2019 19:48,7/25/2019 21:08,1,1.3333,1.3333,1,Vertical,-2,130,0.945,0,0,hour
12cb2930f1f85b91daf5dd9158,7/25/2019 19:48,7/25/2019 21:08,1,1.3333,1.3333,1,Vertical,6,131,0.915,1,0,hour
12cb2930f1f85b91daf5dd9158,7/25/2019 19:48,7/25/2019 21:08,1,1.3333,1.3333,1,Vertical,4,132,1.118,1,0,hour
12cb2930f1f85b91daf5dd9158,7/25/2019 19:48,7/25/2019 21:08,1,1.3333,1.3333,1,Horizontal,0,133,1.968,1,0,hour
12cb2930f1f85b91daf5dd9158,7/25/2019 19:48,7/25/2019 21:08,1,1.3333,1.3333,1,Horizontal,-2,134,0.611,0,0,hour
12cb2930f1f85b91daf5dd9158,7/25/2019 19:48,7/25/2019 21:08,1,1.3333,1.3333,1,Horizontal,-4,135,0.496,0,0,hour
12cb2930f1f85b91daf5dd9158,7/25/2019 19:48,7/25/2019 21:08,1,1.3333,1.3333,1,Vertical,0,136,3.297,1,0,hour
12cb2930f1f85b91daf5dd9158,7/25/2019 19:48,7/25/2019 21:08,1,1.3333,1.3333,1,Vertical,2,137,1.08,0,0,hour
12cb2930f1f85b91daf5dd9158,7/25/2019 19:48,7/25/2019 21:08,1,1.3333,1.3333,1,Vertical,10,138,0.902,1,0,hour
12cb2930f1f85b91daf5dd9158,7/25/2019 19:48,7/25/2019 21:08,1,1.3333,1.3333,1,Horizontal,-6,139,0.543,0,0,hour
12cb2930f1f85b91daf5dd9158,7/25/2019 19:48,7/25/2019 21:08,1,1.3333,1.3333,1,Horizontal,8,140,0.561,1,0,hour
12cb2930f1f85b91daf5dd9158,7/25/2019 19:48,7/25/2019 21:08,1,1.3333,1.3333,1,Horizontal,4,141,0.782,1,0,hour
12cb2930f1f85b91daf5dd9158,7/25/2019 19:48,7/25/2019 21:08,1,1.3333,1.3333,1,Vertical,0,142,1.227,0,0,hour
12cb2930f1f85b91daf5dd9158,7/25/2019 19:48,7/25/2019 21:08,1,1.3333,1.3333,1,Vertical,-4,143,1.159,0,0,hour
12cb2930f1f85b91daf5dd9158,7/25/2019 19:48,7/25/2019 21:08,1,1.3333,1.3333,1,Vertical,2,144,3.972,1,0,hour
12cb2930f1f85b91daf5dd9158,7/25/2019 19:48,7/25/2019 21:08,1,1.3333,1.3333,1,Horizontal,0,145,1.767,1,0,hour
12cb2930f1f85b91daf5dd9158,7/25/2019 19:48,7/25/2019 21:08,1,1.3333,1.3333,1,Horizontal,2,146,1.43,1,0,hour
12cb2930f1f85b91daf5dd9158,7/25/2019 19:48,7/25/2019 21:08,1,1.3333,1.3333,1,Horizontal,2,147,1.063,1,0,hour
12cb2930f1f85b91daf5dd9158,7/25/2019 19:48,7/25/2019 21:08,1,1.3333,1.3333,1,Vertical,-8,148,1.153,0,0,hour
12cb2930f1f85b91daf5dd9158,7/25/2019 19:48,7/25/2019 21:08,1,1.3333,1.3333,1,Vertical,-10,149,0.889,0,0,hour
12cb2930f1f85b91daf5dd9158,7/25/2019 19:48,7/25/2019 21:08,1,1.3333,1.3333,1,Vertical,-2,150,0.934,0,0,hour
12cb2930f1f85b91daf5dd9158,7/25/2019 19:48,7/25/2019 21:08,1,1.3333,1.3333,1,Horizontal,-4,151,1.013,0,0,hour
12cb2930f1f85b91daf5dd9158,7/25/2019 19:48,7/25/2019 21:08,1,1.3333,1.3333,1,Horizontal,-10,152,0.598,0,0,hour
12cb2930f1f85b91daf5dd9158,7/25/2019 19:48,7/25/2019 21:08,1,1.3333,1.3333,1,Horizontal,2,153,0.75,1,0,hour
12cb2930f1f85b91daf5dd9158,7/25/2019 19:48,7/25/2019 21:08,1,1.3333,1.3333,1,Vertical,0,154,1.334,0,0,hour
12cb2930f1f85b91daf5dd9158,7/25/2019 19:48,7/25/2019 21:08,1,1.3333,1.3333,1,Vertical,-8,155,0.682,0,0,hour
12cb2930f1f85b91daf5dd9158,7/25/2019 19:48,7/25/2019 21:08,1,1.3333,1.3333,1,Vertical,2,156,2.3,0,0,hour
12cb2930f1f85b91daf5dd9158,7/25/2019 19:48,7/25/2019 21:08,1,1.3333,1.3333,1,Horizontal,0,157,1.709,0,0,hour
12cb2930f1f85b91daf5dd9158,7/25/2019 19:48,7/25/2019 21:08,1,1.3333,1.3333,1,Horizontal,4,158,0.554,1,0,hour
12cb2930f1f85b91daf5dd9158,7/25/2019 19:48,7/25/2019 21:08,1,1.3333,1.3333,1,Horizontal,-2,159,0.537,0,0,hour
12cb2930f1f85b91daf5dd9158,7/25/2019 19:48,7/25/2019 21:08,1,1.3333,1.3333,1,Vertical,8,160,1.796,1,0,hour
12cb2930f1f85b91daf5dd9158,7/25/2019 19:48,7/25/2019 21:08,1,1.3333,1.3333,1,Vertical,-6,161,0.75,0,0,hour
12cb2930f1f85b91daf5dd9158,7/25/2019 19:48,7/25/2019 21:08,1,1.3333,1.3333,1,Vertical,-4,162,0.964,0,0,hour
12cb2930f1f85b91daf5dd9158,7/25/2019 19:48,7/25/2019 21:08,1,1.3333,1.3333,1,Horizontal,2,163,0.985,1,0,hour
12cb2930f1f85b91daf5dd9158,7/25/2019 19:48,7/25/2019 21:08,1,1.3333,1.3333,1,Horizontal,8,164,0.606,1,0,hour
12cb2930f1f85b91daf5dd9158,7/25/2019 19:48,7/25/2019 21:08,1,1.3333,1.3333,1,Horizontal,-8,165,0.584,0,0,hour
12cb2930f1f85b91daf5dd9158,7/25/2019 19:48,7/25/2019 21:08,1,1.3333,1.3333,1,Vertical,-10,166,0.588,0,0,hour
12cb2930f1f85b91daf5dd9158,7/25/2019 19:48,7/25/2019 21:08,1,1.3333,1.3333,1,Vertical,10,167,0.874,1,0,hour
12cb2930f1f85b91daf5dd9158,7/25/2019 19:48,7/25/2019 21:08,1,1.3333,1.3333,1,Vertical,-4,168,1.19,0,0,hour
12cb2930f1f85b91daf5dd9158,7/25/2019 19:48,7/25/2019 21:08,1,1.3333,1.3333,1,Horizontal,8,169,0.499,1,0,hour
12cb2930f1f85b91daf5dd9158,7/25/2019 19:48,7/25/2019 21:08,1,1.3333,1.3333,1,Horizontal,8,170,0.484,1,0,hour
12cb2930f1f85b91daf5dd9158,7/25/2019 19:48,7/25/2019 21:08,1,1.3333,1.3333,1,Horizontal,-8,171,0.49,0,0,hour
12cb2930f1f85b91daf5dd9158,7/25/2019 19:48,7/25/2019 21:08,1,1.3333,1.3333,1,Vertical,0,172,1.02,0,0,hour
12cb2930f1f85b91daf5dd9158,7/25/2019 19:48,7/25/2019 21:08,1,1.3333,1.3333,1,Vertical,8,173,0.865,1,0,hour
12cb2930f1f85b91daf5dd9158,7/25/2019 19:48,7/25/2019 21:08,1,1.3333,1.3333,1,Vertical,-2,174,0.86,0,0,hour
12cb2930f1f85b91daf5dd9158,7/25/2019 19:48,7/25/2019 21:08,1,1.3333,1.3333,1,Horizontal,0,175,3.879,1,0,hour
12cb2930f1f85b91daf5dd9158,7/25/2019 19:48,7/25/2019 21:08,1,1.3333,1.3333,1,Horizontal,-8,176,0.517,0,0,hour
12cb2930f1f85b91daf5dd9158,7/25/2019 19:48,7/25/2019 21:08,1,1.3333,1.3333,1,Horizontal,-4,177,0.511,0,0,hour
12cb2930f1f85b91daf5dd9158,7/25/2019 19:48,7/25/2019 21:08,1,1.3333,1.3333,1,Vertical,8,178,2.432,1,0,hour
12cb2930f1f85b91daf5dd9158,7/25/2019 19:48,7/25/2019 21:08,1,1.3333,1.3333,1,Vertical,-8,179,0.608,0,0,hour
12cb2930f1f85b91daf5dd9158,7/25/2019 19:48,7/25/2019 21:08,1,1.3333,1.3333,1,Vertical,2,180,2.739,0,0,hour
12cb2930f1f85b91daf5dd9158,7/25/2019 19:48,7/25/2019 21:08,1,1.3333,1.3333,1,Horizontal,10,181,0.821,1,0,hour
12cb2930f1f85b91daf5dd9158,7/25/2019 19:48,7/25/2019 21:08,1,1.3333,1.3333,1,Horizontal,-6,182,0.687,0,0,hour
12cb2930f1f85b91daf5dd9158,7/25/2019 19:48,7/25/2019 21:08,1,1.3333,1.3333,1,Horizontal,4,183,0.765,1,0,hour
12cb2930f1f85b91daf5dd9158,7/25/2019 19:48,7/25/2019 21:08,1,1.3333,1.3333,1,Vertical,-6,184,0.839,0,0,hour
12cb2930f1f85b91daf5dd9158,7/25/2019 19:48,7/25/2019 21:08,1,1.3333,1.3333,1,Vertical,-6,185,0.833,0,0,hour
12cb2930f1f85b91daf5dd9158,7/25/2019 19:48,7/25/2019 21:08,1,1.3333,1.3333,1,Vertical,-10,186,0.549,0,0,hour
12cb2930f1f85b91daf5dd9158,7/25/2019 19:48,7/25/2019 21:08,1,1.3333,1.3333,1,Horizontal,8,187,0.491,1,0,hour
12cb2930f1f85b91daf5dd9158,7/25/2019 19:48,7/25/2019 21:08,1,1.3333,1.3333,1,Horizontal,-6,188,0.515,0,0,hour
12cb2930f1f85b91daf5dd9158,7/25/2019 19:48,7/25/2019 21:08,1,1.3333,1.3333,1,Horizontal,-6,189,0.476,0,0,hour
12cb2930f1f85b91daf5dd9158,7/25/2019 19:48,7/25/2019 21:08,1,1.3333,1.3333,1,Vertical,0,190,1.78,0,0,hour
12cb2930f1f85b91daf5dd9158,7/25/2019 19:48,7/25/2019 21:08,1,1.3333,1.3333,1,Vertical,6,191,0.93,1,0,hour
12cb2930f1f85b91daf5dd9158,7/25/2019 19:48,7/25/2019 21:08,1,1.3333,1.3333,1,Vertical,10,192,1.18,1,0,hour
12cb2930f1f85b91daf5dd9158,7/25/2019 19:48,7/25/2019 21:08,1,1.3333,1.3333,1,Horizontal,0,193,2.346,0,0,hour
12cb2930f1f85b91daf5dd9158,7/25/2019 19:48,7/25/2019 21:08,1,1.3333,1.3333,1,Horizontal,6,194,0.543,1,0,hour
12cb2930f1f85b91daf5dd9158,7/25/2019 19:48,7/25/2019 21:08,1,1.3333,1.3333,1,Horizontal,2,195,0.841,1,0,hour
12cb2930f1f85b91daf5dd9158,7/25/2019 19:48,7/25/2019 21:08,1,1.3333,1.3333,1,Vertical,-8,196,1.058,0,0,hour
12cb2930f1f85b91daf5dd9158,7/25/2019 19:48,7/25/2019 21:08,1,1.3333,1.3333,1,Vertical,-4,197,0.831,0,0,hour
12cb2930f1f85b91daf5dd9158,7/25/2019 19:48,7/25/2019 21:08,1,1.3333,1.3333,1,Vertical,8,198,0.863,1,0,hour
12cb2930f1f85b91daf5dd9158,7/25/2019 19:48,7/25/2019 21:08,1,1.3333,1.3333,1,Horizontal,0,199,1.459,0,0,hour
12cb2930f1f85b91daf5dd9158,7/25/2019 19:48,7/25/2019 21:08,1,1.3333,1.3333,1,Horizontal,-10,200,0.568,0,0,hour
12cb2930f1f85b91daf5dd9158,7/25/2019 19:48,7/25/2019 21:08,1,1.3333,1.3333,1,Horizontal,-8,201,0.476,0,0,hour
12cb2930f1f85b91daf5dd9158,7/25/2019 19:48,7/25/2019 21:08,1,1.3333,1.3333,1,Vertical,-8,202,0.807,0,0,hour
12cb2930f1f85b91daf5dd9158,7/25/2019 19:48,7/25/2019 21:08,1,1.3333,1.3333,1,Vertical,4,203,1.799,1,0,hour
12cb2930f1f85b91daf5dd9158,7/25/2019 19:48,7/25/2019 21:08,1,1.3333,1.3333,1,Vertical,4,204,3.695,0,0,hour
12cb2930f1f85b91daf5dd9158,7/25/2019 19:48,7/25/2019 21:08,1,1.3333,1.3333,1,Horizontal,0,205,1.834,0,0,hour
12cb2930f1f85b91daf5dd9158,7/25/2019 19:48,7/25/2019 21:08,1,1.3333,1.3333,1,Horizontal,10,206,0.509,1,0,hour
12cb2930f1f85b91daf5dd9158,7/25/2019 19:48,7/25/2019 21:08,1,1.3333,1.3333,1,Horizontal,-2,207,0.679,0,0,hour
12cb2930f1f85b91daf5dd9158,7/25/2019 19:48,7/25/2019 21:08,1,1.3333,1.3333,1,Vertical,0,208,2.695,0,0,hour
12cb2930f1f85b91daf5dd9158,7/25/2019 19:48,7/25/2019 21:08,1,1.3333,1.3333,1,Vertical,4,209,1.237,1,0,hour
12cb2930f1f85b91daf5dd9158,7/25/2019 19:48,7/25/2019 21:08,1,1.3333,1.3333,1,Vertical,8,210,0.597,1,0,hour
12cb2930f1f85b91daf5dd9158,7/25/2019 19:48,7/25/2019 21:08,1,1.3333,1.3333,1,Horizontal,6,211,0.824,1,0,hour
12cb2930f1f85b91daf5dd9158,7/25/2019 19:48,7/25/2019 21:08,1,1.3333,1.3333,1,Horizontal,-8,212,0.527,0,0,hour
12cb2930f1f85b91daf5dd9158,7/25/2019 19:48,7/25/2019 21:08,1,1.3333,1.3333,1,Horizontal,-10,213,0.491,0,0,hour
12cb2930f1f85b91daf5dd9158,7/25/2019 19:48,7/25/2019 21:08,1,1.3333,1.3333,1,Vertical,0,214,0.833,0,0,hour
12cb2930f1f85b91daf5dd9158,7/25/2019 19:48,7/25/2019 21:08,1,1.3333,1.3333,1,Vertical,10,215,0.631,1,0,hour
12cb2930f1f85b91daf5dd9158,7/25/2019 19:48,7/25/2019 21:08,1,1.3333,1.3333,1,Vertical,4,216,3.157,1,0,hour
12cb2930f1f85b91daf5dd9158,7/25/2019 19:48,7/25/2019 21:08,1,1.3333,1.3333,1,Horizontal,0,217,3.781,0,0,hour
12cb2930f1f85b91daf5dd9158,7/25/2019 19:48,7/25/2019 21:08,1,1.3333,1.3333,1,Horizontal,-4,218,0.549,0,0,hour
12cb2930f1f85b91daf5dd9158,7/25/2019 19:48,7/25/2019 21:08,1,1.3333,1.3333,1,Horizontal,10,219,0.485,1,0,hour
12cb2930f1f85b91daf5dd9158,7/25/2019 19:48,7/25/2019 21:08,1,1.3333,1.3333,1,Vertical,2,220,2.416,0,0,hour
12cb2930f1f85b91daf5dd9158,7/25/2019 19:48,7/25/2019 21:08,1,1.3333,1.3333,1,Vertical,-4,221,0.943,0,0,hour
12cb2930f1f85b91daf5dd9158,7/25/2019 19:48,7/25/2019 21:08,1,1.3333,1.3333,1,Vertical,-2,222,0.884,0,0,hour
12cb2930f1f85b91daf5dd9158,7/25/2019 19:48,7/25/2019 21:08,1,1.3333,1.3333,1,Horizontal,0,223,0.846,1,0,hour
12cb2930f1f85b91daf5dd9158,7/25/2019 19:48,7/25/2019 21:08,1,1.3333,1.3333,1,Horizontal,10,224,0.456,1,0,hour
12cb2930f1f85b91daf5dd9158,7/25/2019 19:48,7/25/2019 21:08,1,1.3333,1.3333,1,Horizontal,-10,225,0.477,0,0,hour
12cb2930f1f85b91daf5dd9158,7/25/2019 19:48,7/25/2019 21:08,1,1.3333,1.3333,1,Vertical,0,226,4.031,1,0,hour
12cb2930f1f85b91daf5dd9158,7/25/2019 19:48,7/25/2019 21:08,1,1.3333,1.3333,1,Vertical,6,227,0.953,1,0,hour
12cb2930f1f85b91daf5dd9158,7/25/2019 19:48,7/25/2019 21:08,1,1.3333,1.3333,1,Vertical,6,228,1.028,1,0,hour
12cb2930f1f85b91daf5dd9158,7/25/2019 19:48,7/25/2019 21:08,1,1.3333,1.3333,1,Horizontal,-10,229,0.501,0,0,hour
12cb2930f1f85b91daf5dd9158,7/25/2019 19:48,7/25/2019 21:08,1,1.3333,1.3333,1,Horizontal,10,230,0.501,1,0,hour
12cb2930f1f85b91daf5dd9158,7/25/2019 19:48,7/25/2019 21:08,1,1.3333,1.3333,1,Horizontal,4,231,0.596,1,0,hour
12cb2930f1f85b91daf5dd9158,7/25/2019 19:48,7/25/2019 21:08,1,1.3333,1.3333,1,Vertical,0,232,2.154,0,0,hour
12cb2930f1f85b91daf5dd9158,7/25/2019 19:48,7/25/2019 21:08,1,1.3333,1.3333,1,Vertical,-6,233,0.593,0,0,hour
12cb2930f1f85b91daf5dd9158,7/25/2019 19:48,7/25/2019 21:08,1,1.3333,1.3333,1,Vertical,-2,234,1.097,0,0,hour
12cb2930f1f85b91daf5dd9158,7/25/2019 19:48,7/25/2019 21:08,1,1.3333,1.3333,1,Horizontal,-2,235,1.667,0,0,hour
12cb2930f1f85b91daf5dd9158,7/25/2019 19:48,7/25/2019 21:08,1,1.3333,1.3333,1,Horizontal,-4,236,0.53,0,0,hour
12cb2930f1f85b91daf5dd9158,7/25/2019 19:48,7/25/2019 21:08,1,1.3333,1.3333,1,Horizontal,-6,237,0.531,0,0,hour
12cb2930f1f85b91daf5dd9158,7/25/2019 19:48,7/25/2019 21:08,1,1.3333,1.3333,1,Vertical,-10,238,0.62,0,0,hour
12cb2930f1f85b91daf5dd9158,7/25/2019 19:48,7/25/2019 21:08,1,1.3333,1.3333,1,Vertical,10,239,0.942,1,0,hour
12cb2930f1f85b91daf5dd9158,7/25/2019 19:48,7/25/2019 21:08,1,1.3333,1.3333,1,Vertical,-10,240,0.648,0,0,hour
12cb2930f1f85b91daf5dd9158,7/25/2019 19:48,7/25/2019 21:08,1,1.3333,1.3333,1,Horizontal,10,241,0.579,1,0,hour
12cb2930f1f85b91daf5dd9158,7/25/2019 19:48,7/25/2019 21:08,1,1.3333,1.3333,1,Horizontal,-6,242,0.485,0,0,hour
12cb2930f1f85b91daf5dd9158,7/25/2019 19:48,7/25/2019 21:08,1,1.3333,1.3333,1,Horizontal,-10,243,0.467,0,0,hour
12cb2930f1f85b91daf5dd9158,7/25/2019 19:48,7/25/2019 21:08,1,1.3333,1.3333,1,Vertical,-4,244,1.18,0,0,hour
12cb2930f1f85b91daf5dd9158,7/25/2019 19:48,7/25/2019 21:08,1,1.3333,1.3333,1,Vertical,10,245,0.564,1,0,hour
12cb2930f1f85b91daf5dd9158,7/25/2019 19:48,7/25/2019 21:08,1,1.3333,1.3333,1,Vertical,-10,246,0.624,0,0,hour
12cb2930f1f85b91daf5dd9158,7/25/2019 19:48,7/25/2019 21:08,1,1.3333,1.3333,1,Horizontal,0,247,3.816,1,0,hour
12cb2930f1f85b91daf5dd9158,7/25/2019 19:48,7/25/2019 21:08,1,1.3333,1.3333,1,Horizontal,-4,248,0.565,0,0,hour
12cb2930f1f85b91daf5dd9158,7/25/2019 19:48,7/25/2019 21:08,1,1.3333,1.3333,1,Horizontal,-2,249,1.249,0,0,hour
12cb2930f1f85b91daf5dd9158,7/25/2019 19:48,7/25/2019 21:08,1,1.3333,1.3333,1,Vertical,2,250,1.972,0,0,hour
12cb2930f1f85b91daf5dd9158,7/25/2019 19:48,7/25/2019 21:08,1,1.3333,1.3333,1,Vertical,-4,251,1.039,0,0,hour
12cb2930f1f85b91daf5dd9158,7/25/2019 19:48,7/25/2019 21:08,1,1.3333,1.3333,1,Vertical,6,252,0.987,1,0,hour
12cb2930f1f85b91daf5dd9158,7/25/2019 19:48,7/25/2019 21:08,1,1.3333,1.3333,1,Horizontal,0,253,2.567,0,0,hour
12cb2930f1f85b91daf5dd9158,7/25/2019 19:48,7/25/2019 21:08,1,1.3333,1.3333,1,Horizontal,-2,254,0.626,0,0,hour
12cb2930f1f85b91daf5dd9158,7/25/2019 19:48,7/25/2019 21:08,1,1.3333,1.3333,1,Horizontal,10,255,0.483,1,0,hour
12cb2930f1f85b91daf5dd9158,7/25/2019 19:48,7/25/2019 21:08,1,1.3333,1.3333,1,Vertical,0,256,1.075,0,0,hour
12cb2930f1f85b91daf5dd9158,7/25/2019 19:48,7/25/2019 21:08,1,1.3333,1.3333,1,Vertical,2,257,2.127,0,0,hour
12cb2930f1f85b91daf5dd9158,7/25/2019 19:48,7/25/2019 21:08,1,1.3333,1.3333,1,Vertical,-10,258,0.584,0,0,hour
12cb2930f1f85b91daf5dd9158,7/25/2019 19:48,7/25/2019 21:08,1,1.3333,1.3333,1,Horizontal,4,259,0.623,1,0,hour
12cb2930f1f85b91daf5dd9158,7/25/2019 19:48,7/25/2019 21:08,1,1.3333,1.3333,1,Horizontal,-8,260,0.492,0,0,hour
12cb2930f1f85b91daf5dd9158,7/25/2019 19:48,7/25/2019 21:08,1,1.3333,1.3333,1,Horizontal,4,261,0.553,1,0,hour
12cb2930f1f85b91daf5dd9158,7/25/2019 19:48,7/25/2019 21:08,1,1.3333,1.3333,1,Vertical,6,262,1.662,1,0,hour
12cb2930f1f85b91daf5dd9158,7/25/2019 19:48,7/25/2019 21:08,1,1.3333,1.3333,1,Vertical,10,263,0.611,1,0,hour
12cb2930f1f85b91daf5dd9158,7/25/2019 19:48,7/25/2019 21:08,1,1.3333,1.3333,1,Vertical,-2,264,0.811,0,0,hour
12cb2930f1f85b91daf5dd9158,7/25/2019 19:48,7/25/2019 21:08,1,1.3333,1.3333,1,Horizontal,0,265,3.11,0,0,hour
12cb2930f1f85b91daf5dd9158,7/25/2019 19:48,7/25/2019 21:08,1,1.3333,1.3333,1,Horizontal,4,266,0.552,1,0,hour
12cb2930f1f85b91daf5dd9158,7/25/2019 19:48,7/25/2019 21:08,1,1.3333,1.3333,1,Horizontal,-4,267,0.634,0,0,hour
12cb2930f1f85b91daf5dd9158,7/25/2019 19:48,7/25/2019 21:08,1,1.3333,1.3333,1,Vertical,0,268,1.015,0,0,hour
12cb2930f1f85b91daf5dd9158,7/25/2019 19:48,7/25/2019 21:08,1,1.3333,1.3333,1,Vertical,-2,269,0.911,0,0,hour
12cb2930f1f85b91daf5dd9158,7/25/2019 19:48,7/25/2019 21:08,1,1.3333,1.3333,1,Vertical,4,270,1.519,1,0,hour
12cb2930f1f85b91daf5dd9158,7/25/2019 19:48,7/25/2019 21:08,1,1.3333,1.3333,1,Horizontal,-8,271,0.608,0,0,hour
12cb2930f1f85b91daf5dd9158,7/25/2019 19:48,7/25/2019 21:08,1,1.3333,1.3333,1,Horizontal,-8,272,0.508,0,0,hour
12cb2930f1f85b91daf5dd9158,7/25/2019 19:48,7/25/2019 21:08,1,1.3333,1.3333,1,Horizontal,6,273,0.888,1,0,hour
12cb2930f1f85b91daf5dd9158,7/25/2019 19:48,7/25/2019 21:08,1,1.3333,1.3333,1,Vertical,-10,274,0.569,0,0,hour
12cb2930f1f85b91daf5dd9158,7/25/2019 19:48,7/25/2019 21:08,1,1.3333,1.3333,1,Vertical,2,275,6.56,1,0,hour
12cb2930f1f85b91daf5dd9158,7/25/2019 19:48,7/25/2019 21:08,1,1.3333,1.3333,1,Vertical,-2,276,1.729,0,0,hour
12cb2930f1f85b91daf5dd9158,7/25/2019 19:48,7/25/2019 21:08,1,1.3333,1.3333,1,Horizontal,0,277,3.223,0,0,hour
12cb2930f1f85b91daf5dd9158,7/25/2019 19:48,7/25/2019 21:08,1,1.3333,1.3333,1,Horizontal,-4,278,0.95,0,0,hour
12cb2930f1f85b91daf5dd9158,7/25/2019 19:48,7/25/2019 21:08,1,1.3333,1.3333,1,Horizontal,-6,279,0.578,0,0,hour
12cb2930f1f85b91daf5dd9158,7/25/2019 19:48,7/25/2019 21:08,1,1.3333,1.3333,1,Vertical,0,280,2.192,0,0,hour
12cb2930f1f85b91daf5dd9158,7/25/2019 19:48,7/25/2019 21:08,1,1.3333,1.3333,1,Vertical,10,281,0.723,1,0,hour
12cb2930f1f85b91daf5dd9158,7/25/2019 19:48,7/25/2019 21:08,1,1.3333,1.3333,1,Vertical,-4,282,0.86,0,0,hour
12cb2930f1f85b91daf5dd9158,7/25/2019 19:48,7/25/2019 21:08,1,1.3333,1.3333,1,Horizontal,4,283,0.557,1,0,hour
12cb2930f1f85b91daf5dd9158,7/25/2019 19:48,7/25/2019 21:08,1,1.3333,1.3333,1,Horizontal,6,284,0.462,1,0,hour
12cb2930f1f85b91daf5dd9158,7/25/2019 19:48,7/25/2019 21:08,1,1.3333,1.3333,1,Horizontal,10,285,0.468,1,0,hour
12cb2930f1f85b91daf5dd9158,7/25/2019 19:48,7/25/2019 21:08,1,1.3333,1.3333,1,Vertical,0,286,0.976,0,0,hour
12cb2930f1f85b91daf5dd9158,7/25/2019 19:48,7/25/2019 21:08,1,1.3333,1.3333,1,Vertical,-8,287,0.707,0,0,hour
12cb2930f1f85b91daf5dd9158,7/25/2019 19:48,7/25/2019 21:08,1,1.3333,1.3333,1,Vertical,8,288,0.792,1,0,hour
12cb2930f1f85b91daf5dd9158,7/25/2019 19:48,7/25/2019 21:08,1,1.3333,1.3333,1,Horizontal,0,289,1.307,0,0,hour
12cb2930f1f85b91daf5dd9158,7/25/2019 19:48,7/25/2019 21:08,1,1.3333,1.3333,1,Horizontal,2,290,0.896,1,0,hour
12cb2930f1f85b91daf5dd9158,7/25/2019 19:48,7/25/2019 21:08,1,1.3333,1.3333,1,Horizontal,-2,291,0.748,0,0,hour
12cb2930f1f85b91daf5dd9158,7/25/2019 19:48,7/25/2019 21:08,1,1.3333,1.3333,1,Vertical,4,292,2.106,1,0,hour
12cb2930f1f85b91daf5dd9158,7/25/2019 19:48,7/25/2019 21:08,1,1.3333,1.3333,1,Vertical,-6,293,0.838,0,0,hour
12cb2930f1f85b91daf5dd9158,7/25/2019 19:48,7/25/2019 21:08,1,1.3333,1.3333,1,Vertical,4,294,0.908,1,0,hour
12cb2930f1f85b91daf5dd9158,7/25/2019 19:48,7/25/2019 21:08,1,1.3333,1.3333,1,Horizontal,-2,295,0.627,0,0,hour
12cb2930f1f85b91daf5dd9158,7/25/2019 19:48,7/25/2019 21:08,1,1.3333,1.3333,1,Horizontal,-8,296,0.716,0,0,hour
12cb2930f1f85b91daf5dd9158,7/25/2019 19:48,7/25/2019 21:08,1,1.3333,1.3333,1,Horizontal,2,297,0.688,1,0,hour
12cb2930f1f85b91daf5dd9158,7/25/2019 19:48,7/25/2019 21:08,1,1.3333,1.3333,1,Vertical,0,298,1.576,0,0,hour
12cb2930f1f85b91daf5dd9158,7/25/2019 19:48,7/25/2019 21:08,1,1.3333,1.3333,1,Vertical,4,299,1.462,1,0,hour
12cb2930f1f85b91daf5dd9158,7/25/2019 19:48,7/25/2019 21:08,1,1.3333,1.3333,1,Vertical,6,300,1.141,1,0,hour
12cb2930f1f85b91daf5dd9158,7/25/2019 19:48,7/25/2019 21:08,1,1.3333,1.3333,1,Horizontal,0,301,2.499,1,0,hour
12cb2930f1f85b91daf5dd9158,7/25/2019 19:48,7/25/2019 21:08,1,1.3333,1.3333,1,Horizontal,6,302,0.533,1,0,hour
12cb2930f1f85b91daf5dd9158,7/25/2019 19:48,7/25/2019 21:08,1,1.3333,1.3333,1,Horizontal,8,303,0.462,1,0,hour
12cb2930f1f85b91daf5dd9158,7/25/2019 19:48,7/25/2019 21:08,1,1.3333,1.3333,1,Vertical,0,304,1.193,0,0,hour
12cb2930f1f85b91daf5dd9158,7/25/2019 19:48,7/25/2019 21:08,1,1.3333,1.3333,1,Vertical,8,305,0.816,1,0,hour
12cb2930f1f85b91daf5dd9158,7/25/2019 19:48,7/25/2019 21:08,1,1.3333,1.3333,1,Vertical,8,306,0.867,1,0,hour
12cb2930f1f85b91daf5dd9158,7/25/2019 19:48,7/25/2019 21:08,1,1.3333,1.3333,1,Horizontal,0,307,1.466,1,0,hour
12cb2930f1f85b91daf5dd9158,7/25/2019 19:48,7/25/2019 21:08,1,1.3333,1.3333,1,Horizontal,-10,308,0.463,0,0,hour
12cb2930f1f85b91daf5dd9158,7/25/2019 19:48,7/25/2019 21:08,1,1.3333,1.3333,1,Horizontal,10,309,0.459,1,0,hour
12cb2930f1f85b91daf5dd9158,7/25/2019 19:48,7/25/2019 21:08,1,1.3333,1.3333,1,Vertical,-6,310,0.816,0,0,hour
12cb2930f1f85b91daf5dd9158,7/25/2019 19:48,7/25/2019 21:08,1,1.3333,1.3333,1,Vertical,-8,311,0.628,0,0,hour
12cb2930f1f85b91daf5dd9158,7/25/2019 19:48,7/25/2019 21:08,1,1.3333,1.3333,1,Vertical,-2,312,0.734,0,0,hour
12cb2930f1f85b91daf5dd9158,7/25/2019 19:48,7/25/2019 21:08,1,1.3333,1.3333,1,Horizontal,8,313,0.422,1,0,hour
12cb2930f1f85b91daf5dd9158,7/25/2019 19:48,7/25/2019 21:08,1,1.3333,1.3333,1,Horizontal,-8,314,0.413,0,0,hour
12cb2930f1f85b91daf5dd9158,7/25/2019 19:48,7/25/2019 21:08,1,1.3333,1.3333,1,Horizontal,-2,315,0.831,0,0,hour
12cb2930f1f85b91daf5dd9158,7/25/2019 19:48,7/25/2019 21:08,1,1.3333,1.3333,1,Vertical,0,316,0.811,0,0,hour
12cb2930f1f85b91daf5dd9158,7/25/2019 19:48,7/25/2019 21:08,1,1.3333,1.3333,1,Vertical,8,317,0.603,1,0,hour
12cb2930f1f85b91daf5dd9158,7/25/2019 19:48,7/25/2019 21:08,1,1.3333,1.3333,1,Vertical,-8,318,0.735,0,0,hour
12cb2930f1f85b91daf5dd9158,7/25/2019 19:48,7/25/2019 21:08,1,1.3333,1.3333,1,Horizontal,-6,319,0.477,0,0,hour
12cb2930f1f85b91daf5dd9158,7/25/2019 19:48,7/25/2019 21:08,1,1.3333,1.3333,1,Horizontal,2,320,0.506,1,0,hour
12cb2930f1f85b91daf5dd9158,7/25/2019 19:48,7/25/2019 21:08,1,1.3333,1.3333,1,Horizontal,6,321,0.439,1,0,hour
12cb2930f1f85b91daf5dd9158,7/25/2019 19:48,7/25/2019 21:08,1,1.3333,1.3333,1,Vertical,-10,322,0.571,0,0,hour
12cb2930f1f85b91daf5dd9158,7/25/2019 19:48,7/25/2019 21:08,1,1.3333,1.3333,1,Vertical,2,323,1.964,0,0,hour
12cb2930f1f85b91daf5dd9158,7/25/2019 19:48,7/25/2019 21:08,1,1.3333,1.3333,1,Vertical,2,324,13.961,0,0,hour
12cb2930f1f85b91daf5dd9158,7/25/2019 19:48,7/25/2019 21:08,1,1.3333,1.3333,1,Horizontal,0,325,0.935,0,0,hour
12cb2930f1f85b91daf5dd9158,7/25/2019 19:48,7/25/2019 21:08,1,1.3333,1.3333,1,Horizontal,8,326,0.537,1,0,hour
12cb2930f1f85b91daf5dd9158,7/25/2019 19:48,7/25/2019 21:08,1,1.3333,1.3333,1,Horizontal,-4,327,0.446,0,0,hour
12cb2930f1f85b91daf5dd9158,7/25/2019 19:48,7/25/2019 21:08,1,1.3333,1.3333,1,Vertical,0,328,0.744,0,0,hour
12cb2930f1f85b91daf5dd9158,7/25/2019 19:48,7/25/2019 21:08,1,1.3333,1.3333,1,Vertical,6,329,0.871,1,0,hour
12cb2930f1f85b91daf5dd9158,7/25/2019 19:48,7/25/2019 21:08,1,1.3333,1.3333,1,Vertical,6,330,0.773,1,0,hour
12cb2930f1f85b91daf5dd9158,7/25/2019 19:48,7/25/2019 21:08,1,1.3333,1.3333,1,Horizontal,0,331,2.883,1,0,hour
12cb2930f1f85b91daf5dd9158,7/25/2019 19:48,7/25/2019 21:08,1,1.3333,1.3333,1,Horizontal,-6,332,0.525,0,0,hour
12cb2930f1f85b91daf5dd9158,7/25/2019 19:48,7/25/2019 21:08,1,1.3333,1.3333,1,Horizontal,8,333,0.462,1,0,hour
12cb2930f1f85b91daf5dd9158,7/25/2019 19:48,7/25/2019 21:08,1,1.3333,1.3333,1,Vertical,-6,334,0.843,0,0,hour
12cb2930f1f85b91daf5dd9158,7/25/2019 19:48,7/25/2019 21:08,1,1.3333,1.3333,1,Vertical,-10,335,0.705,0,0,hour
12cb2930f1f85b91daf5dd9158,7/25/2019 19:48,7/25/2019 21:08,1,1.3333,1.3333,1,Vertical,-8,336,1.028,0,0,hour
12cb2930f1f85b91daf5dd9158,7/25/2019 19:48,7/25/2019 21:08,1,1.3333,1.3333,1,Horizontal,-4,337,0.602,0,0,hour
12cb2930f1f85b91daf5dd9158,7/25/2019 19:48,7/25/2019 21:08,1,1.3333,1.3333,1,Horizontal,-10,338,0.453,0,0,hour
12cb2930f1f85b91daf5dd9158,7/25/2019 19:48,7/25/2019 21:08,1,1.3333,1.3333,1,Horizontal,2,339,0.621,1,0,hour
12cb2930f1f85b91daf5dd9158,7/25/2019 19:48,7/25/2019 21:08,1,1.3333,1.3333,1,Vertical,0,340,2.055,0,0,hour
12cb2930f1f85b91daf5dd9158,7/25/2019 19:48,7/25/2019 21:08,1,1.3333,1.3333,1,Vertical,-4,341,0.624,0,0,hour
12cb2930f1f85b91daf5dd9158,7/25/2019 19:48,7/25/2019 21:08,1,1.3333,1.3333,1,Vertical,-4,342,0.746,0,0,hour
12cb2930f1f85b91daf5dd9158,7/25/2019 19:48,7/25/2019 21:08,1,1.3333,1.3333,1,Horizontal,4,343,0.517,1,0,hour
12cb2930f1f85b91daf5dd9158,7/25/2019 19:48,7/25/2019 21:08,1,1.3333,1.3333,1,Horizontal,-6,344,0.412,0,0,hour
12cb2930f1f85b91daf5dd9158,7/25/2019 19:48,7/25/2019 21:08,1,1.3333,1.3333,1,Horizontal,-10,345,0.446,0,0,hour
12cb2930f1f85b91daf5dd9158,7/25/2019 19:48,7/25/2019 21:08,1,1.3333,1.3333,1,Vertical,-6,346,0.817,0,0,hour
12cb2930f1f85b91daf5dd9158,7/25/2019 19:48,7/25/2019 21:08,1,1.3333,1.3333,1,Vertical,8,347,0.924,1,0,hour
12cb2930f1f85b91daf5dd9158,7/25/2019 19:48,7/25/2019 21:08,1,1.3333,1.3333,1,Vertical,4,348,1.815,0,0,hour
12cb2930f1f85b91daf5dd9158,7/25/2019 19:48,7/25/2019 21:08,1,1.3333,1.3333,1,Horizontal,2,349,2.881,1,0,hour
12cb2930f1f85b91daf5dd9158,7/25/2019 19:48,7/25/2019 21:08,1,1.3333,1.3333,1,Horizontal,8,350,0.711,1,0,hour
12cb2930f1f85b91daf5dd9158,7/25/2019 19:48,7/25/2019 21:08,1,1.3333,1.3333,1,Horizontal,-10,351,0.489,0,0,hour
12cb2930f1f85b91daf5dd9158,7/25/2019 19:48,7/25/2019 21:08,1,1.3333,1.3333,1,Vertical,-8,352,0.745,0,0,hour
12cb2930f1f85b91daf5dd9158,7/25/2019 19:48,7/25/2019 21:08,1,1.3333,1.3333,1,Vertical,-2,353,1.655,0,0,hour
12cb2930f1f85b91daf5dd9158,7/25/2019 19:48,7/25/2019 21:08,1,1.3333,1.3333,1,Vertical,-6,354,0.985,0,0,hour
12cb2930f1f85b91daf5dd9158,7/25/2019 19:48,7/25/2019 21:08,1,1.3333,1.3333,1,Horizontal,0,355,3.229,0,0,hour
12cb2930f1f85b91daf5dd9158,7/25/2019 19:48,7/25/2019 21:08,1,1.3333,1.3333,1,Horizontal,10,356,0.568,1,0,hour
12cb2930f1f85b91daf5dd9158,7/25/2019 19:48,7/25/2019 21:08,1,1.3333,1.3333,1,Horizontal,6,357,0.452,1,0,hour
12cb2930f1f85b91daf5dd9158,7/25/2019 19:48,7/25/2019 21:08,1,1.3333,1.3333,1,Vertical,0,358,0.938,0,0,hour
12cb2930f1f85b91daf5dd9158,7/25/2019 19:48,7/25/2019 21:08,1,1.3333,1.3333,1,Vertical,10,359,0.776,1,0,hour
12cb2930f1f85b91daf5dd9158,7/25/2019 19:48,7/25/2019 21:08,1,1.3333,1.3333,1,Vertical,10,360,1.405,1,0,hour
12cb2930f1f85b91daf5dd9158,7/25/2019 19:48,7/25/2019 21:08,1,1.3333,1.3333,1,Horizontal,6,361,1.013,1,0,hour
12cb2930f1f85b91daf5dd9158,7/25/2019 19:48,7/25/2019 21:08,1,1.3333,1.3333,1,Horizontal,-2,362,0.54,0,0,hour
12cb2930f1f85b91daf5dd9158,7/25/2019 19:48,7/25/2019 21:08,1,1.3333,1.3333,1,Horizontal,4,363,0.781,1,0,hour
12cb2930f1f85b91daf5dd9158,7/25/2019 19:48,7/25/2019 21:08,1,1.3333,1.3333,1,Vertical,0,364,1.297,0,0,hour
12cb2930f1f85b91daf5dd9158,7/25/2019 19:48,7/25/2019 21:08,1,1.3333,1.3333,1,Vertical,6,365,1.879,1,0,hour
12cb2930f1f85b91daf5dd9158,7/25/2019 19:48,7/25/2019 21:08,1,1.3333,1.3333,1,Vertical,-6,366,0.778,0,0,hour
12cb2930f1f85b91daf5dd9158,7/25/2019 19:48,7/25/2019 21:08,1,1.3333,1.3333,1,Horizontal,0,367,1.863,0,0,hour
12cb2930f1f85b91daf5dd9158,7/25/2019 19:48,7/25/2019 21:08,1,1.3333,1.3333,1,Horizontal,6,368,0.57,1,0,hour
12cb2930f1f85b91daf5dd9158,7/25/2019 19:48,7/25/2019 21:08,1,1.3333,1.3333,1,Horizontal,6,369,0.544,1,0,hour
12cb2930f1f85b91daf5dd9158,7/25/2019 19:48,7/25/2019 21:08,1,1.3333,1.3333,1,Vertical,-2,370,0.831,0,0,hour
12cb2930f1f85b91daf5dd9158,7/25/2019 19:48,7/25/2019 21:08,1,1.3333,1.3333,1,Vertical,6,371,1.807,1,0,hour
12cb2930f1f85b91daf5dd9158,7/25/2019 19:48,7/25/2019 21:08,1,1.3333,1.3333,1,Vertical,4,372,1.376,1,0,hour
12cb2930f1f85b91daf5dd9158,7/25/2019 19:48,7/25/2019 21:08,1,1.3333,1.3333,1,Horizontal,0,373,7.768,1,0,hour
12cb2930f1f85b91daf5dd9158,7/25/2019 19:48,7/25/2019 21:08,1,1.3333,1.3333,1,Horizontal,-2,374,0.709,0,0,hour
12cb2930f1f85b91daf5dd9158,7/25/2019 19:48,7/25/2019 21:08,1,1.3333,1.3333,1,Horizontal,-4,375,0.63,0,0,hour
12cb2930f1f85b91daf5dd9158,7/25/2019 19:48,7/25/2019 21:08,1,1.3333,1.3333,1,Vertical,0,376,1.744,0,0,hour
12cb2930f1f85b91daf5dd9158,7/25/2019 19:48,7/25/2019 21:08,1,1.3333,1.3333,1,Vertical,2,377,2.474,0,0,hour
12cb2930f1f85b91daf5dd9158,7/25/2019 19:48,7/25/2019 21:08,1,1.3333,1.3333,1,Vertical,10,378,0.588,1,0,hour
12cb2930f1f85b91daf5dd9158,7/25/2019 19:48,7/25/2019 21:08,1,1.3333,1.3333,1,Horizontal,-6,379,0.576,0,0,hour
12cb2930f1f85b91daf5dd9158,7/25/2019 19:48,7/25/2019 21:08,1,1.3333,1.3333,1,Horizontal,8,380,0.514,1,0,hour
12cb2930f1f85b91daf5dd9158,7/25/2019 19:48,7/25/2019 21:08,1,1.3333,1.3333,1,Horizontal,4,381,0.756,1,0,hour
12cb2930f1f85b91daf5dd9158,7/25/2019 19:48,7/25/2019 21:08,1,1.3333,1.3333,1,Vertical,0,382,1.083,0,0,hour
12cb2930f1f85b91daf5dd9158,7/25/2019 19:48,7/25/2019 21:08,1,1.3333,1.3333,1,Vertical,-4,383,0.735,0,0,hour
12cb2930f1f85b91daf5dd9158,7/25/2019 19:48,7/25/2019 21:08,1,1.3333,1.3333,1,Vertical,2,384,1.347,1,0,hour
12cb2930f1f85b91daf5dd9158,7/25/2019 19:48,7/25/2019 21:08,1,1.3333,1.3333,1,Horizontal,0,385,2.852,1,0,hour
12cb2930f1f85b91daf5dd9158,7/25/2019 19:48,7/25/2019 21:08,1,1.3333,1.3333,1,Horizontal,2,386,0.963,1,0,hour
12cb2930f1f85b91daf5dd9158,7/25/2019 19:48,7/25/2019 21:08,1,1.3333,1.3333,1,Horizontal,2,387,0.605,1,0,hour
12cb2930f1f85b91daf5dd9158,7/25/2019 19:48,7/25/2019 21:08,1,1.3333,1.3333,1,Vertical,-8,388,0.726,0,0,hour
12cb2930f1f85b91daf5dd9158,7/25/2019 19:48,7/25/2019 21:08,1,1.3333,1.3333,1,Vertical,-10,389,0.713,0,0,hour
12cb2930f1f85b91daf5dd9158,7/25/2019 19:48,7/25/2019 21:08,1,1.3333,1.3333,1,Vertical,-2,390,1.28,0,0,hour
12cb2930f1f85b91daf5dd9158,7/25/2019 19:48,7/25/2019 21:08,1,1.3333,1.3333,1,Horizontal,-4,391,0.694,0,0,hour
12cb2930f1f85b91daf5dd9158,7/25/2019 19:48,7/25/2019 21:08,1,1.3333,1.3333,1,Horizontal,-10,392,0.471,0,0,hour
12cb2930f1f85b91daf5dd9158,7/25/2019 19:48,7/25/2019 21:08,1,1.3333,1.3333,1,Horizontal,2,393,0.521,1,0,hour
12cb2930f1f85b91daf5dd9158,7/25/2019 19:48,7/25/2019 21:08,1,1.3333,1.3333,1,Vertical,0,394,1.057,0,0,hour
12cb2930f1f85b91daf5dd9158,7/25/2019 19:48,7/25/2019 21:08,1,1.3333,1.3333,1,Vertical,-8,395,0.637,0,0,hour
12cb2930f1f85b91daf5dd9158,7/25/2019 19:48,7/25/2019 21:08,1,1.3333,1.3333,1,Vertical,2,396,2.289,1,0,hour
12cb2930f1f85b91daf5dd9158,7/25/2019 19:48,7/25/2019 21:08,1,1.3333,1.3333,1,Horizontal,0,397,1.294,0,0,hour
12cb2930f1f85b91daf5dd9158,7/25/2019 19:48,7/25/2019 21:08,1,1.3333,1.3333,1,Horizontal,4,398,0.603,1,0,hour
12cb2930f1f85b91daf5dd9158,7/25/2019 19:48,7/25/2019 21:08,1,1.3333,1.3333,1,Horizontal,-2,399,0.718,0,0,hour
12cb2930f1f85b91daf5dd9158,7/25/2019 19:48,7/25/2019 21:08,1,1.3333,1.3333,1,Vertical,8,400,1.242,1,0,hour
12cb2930f1f85b91daf5dd9158,7/25/2019 19:48,7/25/2019 21:08,1,1.3333,1.3333,1,Vertical,-6,401,0.703,0,0,hour
12cb2930f1f85b91daf5dd9158,7/25/2019 19:48,7/25/2019 21:08,1,1.3333,1.3333,1,Vertical,-4,402,1.11,0,0,hour
12cb2930f1f85b91daf5dd9158,7/25/2019 19:48,7/25/2019 21:08,1,1.3333,1.3333,1,Horizontal,2,403,0.82,1,0,hour
12cb2930f1f85b91daf5dd9158,7/25/2019 19:48,7/25/2019 21:08,1,1.3333,1.3333,1,Horizontal,8,404,0.494,1,0,hour
12cb2930f1f85b91daf5dd9158,7/25/2019 19:48,7/25/2019 21:08,1,1.3333,1.3333,1,Horizontal,-8,405,0.49,0,0,hour
12cb2930f1f85b91daf5dd9158,7/25/2019 19:48,7/25/2019 21:08,1,1.3333,1.3333,1,Vertical,-10,406,0.621,0,0,hour
12cb2930f1f85b91daf5dd9158,7/25/2019 19:48,7/25/2019 21:08,1,1.3333,1.3333,1,Vertical,10,407,0.631,1,0,hour
12cb2930f1f85b91daf5dd9158,7/25/2019 19:48,7/25/2019 21:08,1,1.3333,1.3333,1,Vertical,-4,408,0.894,0,0,hour
12cb2930f1f85b91daf5dd9158,7/25/2019 19:48,7/25/2019 21:08,1,1.3333,1.3333,1,Horizontal,8,409,0.779,1,0,hour
12cb2930f1f85b91daf5dd9158,7/25/2019 19:48,7/25/2019 21:08,1,1.3333,1.3333,1,Horizontal,8,410,2.843,1,0,hour
12cb2930f1f85b91daf5dd9158,7/25/2019 19:48,7/25/2019 21:08,1,1.3333,1.3333,1,Horizontal,-8,411,0.502,0,0,hour
12cb2930f1f85b91daf5dd9158,7/25/2019 19:48,7/25/2019 21:08,1,1.3333,1.3333,1,Vertical,0,412,0.758,0,0,hour
12cb2930f1f85b91daf5dd9158,7/25/2019 19:48,7/25/2019 21:08,1,1.3333,1.3333,1,Vertical,8,413,0.634,1,0,hour
12cb2930f1f85b91daf5dd9158,7/25/2019 19:48,7/25/2019 21:08,1,1.3333,1.3333,1,Vertical,-2,414,0.965,0,0,hour
12cb2930f1f85b91daf5dd9158,7/25/2019 19:48,7/25/2019 21:08,1,1.3333,1.3333,1,Horizontal,0,415,2.887,1,0,hour
12cb2930f1f85b91daf5dd9158,7/25/2019 19:48,7/25/2019 21:08,1,1.3333,1.3333,1,Horizontal,-8,416,0.554,0,0,hour
12cb2930f1f85b91daf5dd9158,7/25/2019 19:48,7/25/2019 21:08,1,1.3333,1.3333,1,Horizontal,-4,417,0.521,0,0,hour
12cb2930f1f85b91daf5dd9158,7/25/2019 19:48,7/25/2019 21:08,1,1.3333,1.3333,1,Vertical,8,418,2.308,1,0,hour
12cb2930f1f85b91daf5dd9158,7/25/2019 19:48,7/25/2019 21:08,1,1.3333,1.3333,1,Vertical,-8,419,0.57,0,0,hour
12cb2930f1f85b91daf5dd9158,7/25/2019 19:48,7/25/2019 21:08,1,1.3333,1.3333,1,Vertical,2,420,0.931,0,0,hour
12cb2930f1f85b91daf5dd9158,7/25/2019 19:48,7/25/2019 21:08,1,1.3333,1.3333,1,Horizontal,10,421,0.571,1,0,hour
12cb2930f1f85b91daf5dd9158,7/25/2019 19:48,7/25/2019 21:08,1,1.3333,1.3333,1,Horizontal,-6,422,0.451,0,0,hour
12cb2930f1f85b91daf5dd9158,7/25/2019 19:48,7/25/2019 21:08,1,1.3333,1.3333,1,Horizontal,4,423,0.537,1,0,hour
12cb2930f1f85b91daf5dd9158,7/25/2019 19:48,7/25/2019 21:08,1,1.3333,1.3333,1,Vertical,-6,424,0.821,0,0,hour
12cb2930f1f85b91daf5dd9158,7/25/2019 19:48,7/25/2019 21:08,1,1.3333,1.3333,1,Vertical,-6,425,0.88,0,0,hour
12cb2930f1f85b91daf5dd9158,7/25/2019 19:48,7/25/2019 21:08,1,1.3333,1.3333,1,Vertical,-10,426,0.562,0,0,hour
12cb2930f1f85b91daf5dd9158,7/25/2019 19:48,7/25/2019 21:08,1,1.3333,1.3333,1,Horizontal,8,427,0.483,1,0,hour
12cb2930f1f85b91daf5dd9158,7/25/2019 19:48,7/25/2019 21:08,1,1.3333,1.3333,1,Horizontal,-6,428,0.618,0,0,hour
12cb2930f1f85b91daf5dd9158,7/25/2019 19:48,7/25/2019 21:08,1,1.3333,1.3333,1,Horizontal,-6,429,0.723,0,0,hour
12cb2930f1f85b91daf5dd9158,7/25/2019 19:48,7/25/2019 21:08,1,1.3333,1.3333,1,Vertical,0,430,6.004,0,0,hour
12cb2930f1f85b91daf5dd9158,7/25/2019 19:48,7/25/2019 21:08,1,1.3333,1.3333,1,Vertical,6,431,1.389,1,0,hour
12cb2930f1f85b91daf5dd9158,7/25/2019 19:48,7/25/2019 21:08,1,1.3333,1.3333,1,Vertical,10,432,1.013,1,0,hour
12cb2930f1f85b91daf5dd9158,7/25/2019 19:48,7/25/2019 21:08,1,1.3333,1.3333,1,Horizontal,0,433,3.145,1,0,hour
12cb2930f1f85b91daf5dd9158,7/25/2019 19:48,7/25/2019 21:08,1,1.3333,1.3333,1,Horizontal,6,434,0.533,1,0,hour
12cb2930f1f85b91daf5dd9158,7/25/2019 19:48,7/25/2019 21:08,1,1.3333,1.3333,1,Horizontal,2,435,1.226,1,0,hour
12cb2930f1f85b91daf5dd9158,7/25/2019 19:48,7/25/2019 21:08,1,1.3333,1.3333,1,Vertical,-8,436,0.905,0,0,hour
12cb2930f1f85b91daf5dd9158,7/25/2019 19:48,7/25/2019 21:08,1,1.3333,1.3333,1,Vertical,-4,437,0.942,0,0,hour
12cb2930f1f85b91daf5dd9158,7/25/2019 19:48,7/25/2019 21:08,1,1.3333,1.3333,1,Vertical,8,438,2.845,1,0,hour
12cb2930f1f85b91daf5dd9158,7/25/2019 19:48,7/25/2019 21:08,1,1.3333,1.3333,1,Horizontal,0,439,1.006,0,0,hour
12cb2930f1f85b91daf5dd9158,7/25/2019 19:48,7/25/2019 21:08,1,1.3333,1.3333,1,Horizontal,-10,440,0.478,0,0,hour
12cb2930f1f85b91daf5dd9158,7/25/2019 19:48,7/25/2019 21:08,1,1.3333,1.3333,1,Horizontal,-8,441,0.576,0,0,hour
12cb2930f1f85b91daf5dd9158,7/25/2019 19:48,7/25/2019 21:08,1,1.3333,1.3333,1,Vertical,-8,442,0.727,0,0,hour
12cb2930f1f85b91daf5dd9158,7/25/2019 19:48,7/25/2019 21:08,1,1.3333,1.3333,1,Vertical,4,443,3.327,1,0,hour
12cb2930f1f85b91daf5dd9158,7/25/2019 19:48,7/25/2019 21:08,1,1.3333,1.3333,1,Vertical,4,444,1.816,1,0,hour
12cb2930f1f85b91daf5dd9158,7/25/2019 19:48,7/25/2019 21:08,1,1.3333,1.3333,1,Horizontal,0,445,0.949,0,0,hour
12cb2930f1f85b91daf5dd9158,7/25/2019 19:48,7/25/2019 21:08,1,1.3333,1.3333,1,Horizontal,10,446,0.532,1,0,hour
12cb2930f1f85b91daf5dd9158,7/25/2019 19:48,7/25/2019 21:08,1,1.3333,1.3333,1,Horizontal,-2,447,0.604,0,0,hour
12cb2930f1f85b91daf5dd9158,7/25/2019 19:48,7/25/2019 21:08,1,1.3333,1.3333,1,Vertical,0,448,1.678,0,0,hour
12cb2930f1f85b91daf5dd9158,7/25/2019 19:48,7/25/2019 21:08,1,1.3333,1.3333,1,Vertical,4,449,2.08,1,0,hour
12cb2930f1f85b91daf5dd9158,7/25/2019 19:48,7/25/2019 21:08,1,1.3333,1.3333,1,Vertical,8,450,0.641,1,0,hour
12cb2930f1f85b91daf5dd9158,7/25/2019 19:48,7/25/2019 21:08,1,1.3333,1.3333,1,Horizontal,6,451,0.839,1,0,hour
12cb2930f1f85b91daf5dd9158,7/25/2019 19:48,7/25/2019 21:08,1,1.3333,1.3333,1,Horizontal,-8,452,0.458,0,0,hour
12cb2930f1f85b91daf5dd9158,7/25/2019 19:48,7/25/2019 21:08,1,1.3333,1.3333,1,Horizontal,-10,453,0.482,0,0,hour
12cb2930f1f85b91daf5dd9158,7/25/2019 19:48,7/25/2019 21:08,1,1.3333,1.3333,1,Vertical,0,454,0.977,0,0,hour
12cb2930f1f85b91daf5dd9158,7/25/2019 19:48,7/25/2019 21:08,1,1.3333,1.3333,1,Vertical,10,455,0.761,1,0,hour
12cb2930f1f85b91daf5dd9158,7/25/2019 19:48,7/25/2019 21:08,1,1.3333,1.3333,1,Vertical,4,456,2.001,0,0,hour
12cb2930f1f85b91daf5dd9158,7/25/2019 19:48,7/25/2019 21:08,1,1.3333,1.3333,1,Horizontal,0,457,0.492,0,0,hour
12cb2930f1f85b91daf5dd9158,7/25/2019 19:48,7/25/2019 21:08,1,1.3333,1.3333,1,Horizontal,-4,458,0.689,0,0,hour
12cb2930f1f85b91daf5dd9158,7/25/2019 19:48,7/25/2019 21:08,1,1.3333,1.3333,1,Horizontal,10,459,0.455,1,0,hour
12cb2930f1f85b91daf5dd9158,7/25/2019 19:48,7/25/2019 21:08,1,1.3333,1.3333,1,Vertical,2,460,0.87,0,0,hour
12cb2930f1f85b91daf5dd9158,7/25/2019 19:48,7/25/2019 21:08,1,1.3333,1.3333,1,Vertical,-4,461,0.681,0,0,hour
12cb2930f1f85b91daf5dd9158,7/25/2019 19:48,7/25/2019 21:08,1,1.3333,1.3333,1,Vertical,-2,462,0.901,0,0,hour
12cb2930f1f85b91daf5dd9158,7/25/2019 19:48,7/25/2019 21:08,1,1.3333,1.3333,1,Horizontal,0,463,1.646,0,0,hour
12cb2930f1f85b91daf5dd9158,7/25/2019 19:48,7/25/2019 21:08,1,1.3333,1.3333,1,Horizontal,10,464,0.48,1,0,hour
12cb2930f1f85b91daf5dd9158,7/25/2019 19:48,7/25/2019 21:08,1,1.3333,1.3333,1,Horizontal,-10,465,0.473,0,0,hour
12cb2930f1f85b91daf5dd9158,7/25/2019 19:48,7/25/2019 21:08,1,1.3333,1.3333,1,Vertical,0,466,0.897,0,0,hour
12cb2930f1f85b91daf5dd9158,7/25/2019 19:48,7/25/2019 21:08,1,1.3333,1.3333,1,Vertical,6,467,0.847,1,0,hour
12cb2930f1f85b91daf5dd9158,7/25/2019 19:48,7/25/2019 21:08,1,1.3333,1.3333,1,Vertical,6,468,1.165,1,0,hour
12cb2930f1f85b91daf5dd9158,7/25/2019 19:48,7/25/2019 21:08,1,1.3333,1.3333,1,Horizontal,-10,469,0.507,0,0,hour
12cb2930f1f85b91daf5dd9158,7/25/2019 19:48,7/25/2019 21:08,1,1.3333,1.3333,1,Horizontal,10,470,0.58,1,0,hour
12cb2930f1f85b91daf5dd9158,7/25/2019 19:48,7/25/2019 21:08,1,1.3333,1.3333,1,Horizontal,4,471,0.527,1,0,hour
12cb2930f1f85b91daf5dd9158,7/25/2019 19:48,7/25/2019 21:08,1,1.3333,1.3333,1,Vertical,0,472,0.6,0,0,hour
12cb2930f1f85b91daf5dd9158,7/25/2019 19:48,7/25/2019 21:08,1,1.3333,1.3333,1,Vertical,-6,473,0.505,0,0,hour
12cb2930f1f85b91daf5dd9158,7/25/2019 19:48,7/25/2019 21:08,1,1.3333,1.3333,1,Vertical,-2,474,0.915,0,0,hour
12cb2930f1f85b91daf5dd9158,7/25/2019 19:48,7/25/2019 21:08,1,1.3333,1.3333,1,Horizontal,-2,475,1.067,0,0,hour
12cb2930f1f85b91daf5dd9158,7/25/2019 19:48,7/25/2019 21:08,1,1.3333,1.3333,1,Horizontal,-4,476,0.742,0,0,hour
12cb2930f1f85b91daf5dd9158,7/25/2019 19:48,7/25/2019 21:08,1,1.3333,1.3333,1,Horizontal,-6,477,0.502,0,0,hour
12cb2930f1f85b91daf5dd9158,7/25/2019 19:48,7/25/2019 21:08,1,1.3333,1.3333,1,Vertical,-10,478,0.64,0,0,hour
12cb2930f1f85b91daf5dd9158,7/25/2019 19:48,7/25/2019 21:08,1,1.3333,1.3333,1,Vertical,10,479,0.908,1,0,hour
12cb2930f1f85b91daf5dd9158,7/25/2019 19:48,7/25/2019 21:08,1,1.3333,1.3333,1,Vertical,-10,480,0.642,0,0,hour
18bc027a7a6fff87c682abee9e,7/24/2019 1:43,7/24/2019 3:28,0,1.75,1.75,1,Horizontal,10,1,1.11,1,1,hour
18bc027a7a6fff87c682abee9e,7/24/2019 1:43,7/24/2019 3:28,0,1.75,1.75,1,Horizontal,-6,2,0.933,0,1,hour
18bc027a7a6fff87c682abee9e,7/24/2019 1:43,7/24/2019 3:28,0,1.75,1.75,1,Horizontal,-10,3,0.805,0,1,hour
18bc027a7a6fff87c682abee9e,7/24/2019 1:43,7/24/2019 3:28,0,1.75,1.75,1,Vertical,-4,4,4.705,0,1,hour
18bc027a7a6fff87c682abee9e,7/24/2019 1:43,7/24/2019 3:28,0,1.75,1.75,1,Vertical,10,5,1.227,1,1,hour
18bc027a7a6fff87c682abee9e,7/24/2019 1:43,7/24/2019 3:28,0,1.75,1.75,1,Vertical,-10,6,0.705,0,1,hour
18bc027a7a6fff87c682abee9e,7/24/2019 1:43,7/24/2019 3:28,0,1.75,1.75,1,Horizontal,0,7,4.715,1,1,hour
18bc027a7a6fff87c682abee9e,7/24/2019 1:43,7/24/2019 3:28,0,1.75,1.75,1,Horizontal,-4,8,0.761,0,1,hour
18bc027a7a6fff87c682abee9e,7/24/2019 1:43,7/24/2019 3:28,0,1.75,1.75,1,Horizontal,-2,9,2.585,0,1,hour
18bc027a7a6fff87c682abee9e,7/24/2019 1:43,7/24/2019 3:28,0,1.75,1.75,1,Vertical,2,10,1.183,1,1,hour
18bc027a7a6fff87c682abee9e,7/24/2019 1:43,7/24/2019 3:28,0,1.75,1.75,1,Vertical,-4,11,1.709,0,1,hour
18bc027a7a6fff87c682abee9e,7/24/2019 1:43,7/24/2019 3:28,0,1.75,1.75,1,Vertical,6,12,0.934,1,1,hour
18bc027a7a6fff87c682abee9e,7/24/2019 1:43,7/24/2019 3:28,0,1.75,1.75,1,Horizontal,0,13,10.463,1,1,hour
18bc027a7a6fff87c682abee9e,7/24/2019 1:43,7/24/2019 3:28,0,1.75,1.75,1,Horizontal,-2,14,0.745,0,1,hour
18bc027a7a6fff87c682abee9e,7/24/2019 1:43,7/24/2019 3:28,0,1.75,1.75,1,Horizontal,10,15,0.523,1,1,hour
18bc027a7a6fff87c682abee9e,7/24/2019 1:43,7/24/2019 3:28,0,1.75,1.75,1,Vertical,0,16,2.669,1,1,hour
18bc027a7a6fff87c682abee9e,7/24/2019 1:43,7/24/2019 3:28,0,1.75,1.75,1,Vertical,2,17,0.925,1,1,hour
18bc027a7a6fff87c682abee9e,7/24/2019 1:43,7/24/2019 3:28,0,1.75,1.75,1,Vertical,-10,18,0.63,0,1,hour
18bc027a7a6fff87c682abee9e,7/24/2019 1:43,7/24/2019 3:28,0,1.75,1.75,1,Horizontal,4,19,0.665,1,1,hour
18bc027a7a6fff87c682abee9e,7/24/2019 1:43,7/24/2019 3:28,0,1.75,1.75,1,Horizontal,-8,20,0.56,0,1,hour
18bc027a7a6fff87c682abee9e,7/24/2019 1:43,7/24/2019 3:28,0,1.75,1.75,1,Horizontal,4,21,0.687,1,1,hour
18bc027a7a6fff87c682abee9e,7/24/2019 1:43,7/24/2019 3:28,0,1.75,1.75,1,Vertical,6,22,0.665,1,1,hour
18bc027a7a6fff87c682abee9e,7/24/2019 1:43,7/24/2019 3:28,0,1.75,1.75,1,Vertical,10,23,0.754,1,1,hour
18bc027a7a6fff87c682abee9e,7/24/2019 1:43,7/24/2019 3:28,0,1.75,1.75,1,Vertical,-2,24,5.003,1,1,hour
18bc027a7a6fff87c682abee9e,7/24/2019 1:43,7/24/2019 3:28,0,1.75,1.75,1,Horizontal,0,25,0.645,0,1,hour
18bc027a7a6fff87c682abee9e,7/24/2019 1:43,7/24/2019 3:28,0,1.75,1.75,1,Horizontal,4,26,0.828,1,1,hour
18bc027a7a6fff87c682abee9e,7/24/2019 1:43,7/24/2019 3:28,0,1.75,1.75,1,Horizontal,-4,27,0.582,0,1,hour
18bc027a7a6fff87c682abee9e,7/24/2019 1:43,7/24/2019 3:28,0,1.75,1.75,1,Vertical,0,28,3.664,1,1,hour
18bc027a7a6fff87c682abee9e,7/24/2019 1:43,7/24/2019 3:28,0,1.75,1.75,1,Vertical,-2,29,3.795,0,1,hour
18bc027a7a6fff87c682abee9e,7/24/2019 1:43,7/24/2019 3:28,0,1.75,1.75,1,Vertical,4,30,1.284,1,1,hour
18bc027a7a6fff87c682abee9e,7/24/2019 1:43,7/24/2019 3:28,0,1.75,1.75,1,Horizontal,-8,31,0.791,0,1,hour
18bc027a7a6fff87c682abee9e,7/24/2019 1:43,7/24/2019 3:28,0,1.75,1.75,1,Horizontal,-8,32,0.639,0,1,hour
18bc027a7a6fff87c682abee9e,7/24/2019 1:43,7/24/2019 3:28,0,1.75,1.75,1,Horizontal,6,33,0.723,1,1,hour
18bc027a7a6fff87c682abee9e,7/24/2019 1:43,7/24/2019 3:28,0,1.75,1.75,1,Vertical,-10,34,1.234,0,1,hour
18bc027a7a6fff87c682abee9e,7/24/2019 1:43,7/24/2019 3:28,0,1.75,1.75,1,Vertical,2,35,1.313,1,1,hour
18bc027a7a6fff87c682abee9e,7/24/2019 1:43,7/24/2019 3:28,0,1.75,1.75,1,Vertical,-2,36,1.16,0,1,hour
18bc027a7a6fff87c682abee9e,7/24/2019 1:43,7/24/2019 3:28,0,1.75,1.75,1,Horizontal,0,37,3.864,1,1,hour
18bc027a7a6fff87c682abee9e,7/24/2019 1:43,7/24/2019 3:28,0,1.75,1.75,1,Horizontal,-4,38,0.613,0,1,hour
18bc027a7a6fff87c682abee9e,7/24/2019 1:43,7/24/2019 3:28,0,1.75,1.75,1,Horizontal,-6,39,0.562,0,1,hour
18bc027a7a6fff87c682abee9e,7/24/2019 1:43,7/24/2019 3:28,0,1.75,1.75,1,Vertical,0,40,1.814,1,1,hour
18bc027a7a6fff87c682abee9e,7/24/2019 1:43,7/24/2019 3:28,0,1.75,1.75,1,Vertical,10,41,0.687,1,1,hour
18bc027a7a6fff87c682abee9e,7/24/2019 1:43,7/24/2019 3:28,0,1.75,1.75,1,Vertical,-4,42,1.321,0,1,hour
18bc027a7a6fff87c682abee9e,7/24/2019 1:43,7/24/2019 3:28,0,1.75,1.75,1,Horizontal,4,43,0.592,1,1,hour
18bc027a7a6fff87c682abee9e,7/24/2019 1:43,7/24/2019 3:28,0,1.75,1.75,1,Horizontal,6,44,0.517,1,1,hour
18bc027a7a6fff87c682abee9e,7/24/2019 1:43,7/24/2019 3:28,0,1.75,1.75,1,Horizontal,10,45,0.519,1,1,hour
18bc027a7a6fff87c682abee9e,7/24/2019 1:43,7/24/2019 3:28,0,1.75,1.75,1,Vertical,0,46,0.796,1,1,hour
18bc027a7a6fff87c682abee9e,7/24/2019 1:43,7/24/2019 3:28,0,1.75,1.75,1,Vertical,-8,47,0.597,0,1,hour
18bc027a7a6fff87c682abee9e,7/24/2019 1:43,7/24/2019 3:28,0,1.75,1.75,1,Vertical,8,48,0.867,1,1,hour
18bc027a7a6fff87c682abee9e,7/24/2019 1:43,7/24/2019 3:28,0,1.75,1.75,1,Horizontal,0,49,1.581,1,1,hour
18bc027a7a6fff87c682abee9e,7/24/2019 1:43,7/24/2019 3:28,0,1.75,1.75,1,Horizontal,2,50,0.551,1,1,hour
18bc027a7a6fff87c682abee9e,7/24/2019 1:43,7/24/2019 3:28,0,1.75,1.75,1,Horizontal,-2,51,1.037,0,1,hour
18bc027a7a6fff87c682abee9e,7/24/2019 1:43,7/24/2019 3:28,0,1.75,1.75,1,Vertical,4,52,0.959,1,1,hour
18bc027a7a6fff87c682abee9e,7/24/2019 1:43,7/24/2019 3:28,0,1.75,1.75,1,Vertical,-6,53,1.053,0,1,hour
18bc027a7a6fff87c682abee9e,7/24/2019 1:43,7/24/2019 3:28,0,1.75,1.75,1,Vertical,4,54,0.889,1,1,hour
18bc027a7a6fff87c682abee9e,7/24/2019 1:43,7/24/2019 3:28,0,1.75,1.75,1,Horizontal,-2,55,1.289,0,1,hour
18bc027a7a6fff87c682abee9e,7/24/2019 1:43,7/24/2019 3:28,0,1.75,1.75,1,Horizontal,-8,56,0.539,0,1,hour
18bc027a7a6fff87c682abee9e,7/24/2019 1:43,7/24/2019 3:28,0,1.75,1.75,1,Horizontal,2,57,0.712,1,1,hour
18bc027a7a6fff87c682abee9e,7/24/2019 1:43,7/24/2019 3:28,0,1.75,1.75,1,Vertical,0,58,1.164,1,1,hour
18bc027a7a6fff87c682abee9e,7/24/2019 1:43,7/24/2019 3:28,0,1.75,1.75,1,Vertical,4,59,0.662,1,1,hour
18bc027a7a6fff87c682abee9e,7/24/2019 1:43,7/24/2019 3:28,0,1.75,1.75,1,Vertical,6,60,0.884,1,1,hour
18bc027a7a6fff87c682abee9e,7/24/2019 1:43,7/24/2019 3:28,0,1.75,1.75,1,Horizontal,0,61,3.77,1,1,hour
18bc027a7a6fff87c682abee9e,7/24/2019 1:43,7/24/2019 3:28,0,1.75,1.75,1,Horizontal,6,62,0.623,1,1,hour
18bc027a7a6fff87c682abee9e,7/24/2019 1:43,7/24/2019 3:28,0,1.75,1.75,1,Horizontal,8,63,0.587,1,1,hour
18bc027a7a6fff87c682abee9e,7/24/2019 1:43,7/24/2019 3:28,0,1.75,1.75,1,Vertical,0,64,1.393,1,1,hour
18bc027a7a6fff87c682abee9e,7/24/2019 1:43,7/24/2019 3:28,0,1.75,1.75,1,Vertical,8,65,0.779,1,1,hour
18bc027a7a6fff87c682abee9e,7/24/2019 1:43,7/24/2019 3:28,0,1.75,1.75,1,Vertical,8,66,0.68,1,1,hour
18bc027a7a6fff87c682abee9e,7/24/2019 1:43,7/24/2019 3:28,0,1.75,1.75,1,Horizontal,0,67,3.3,1,1,hour
18bc027a7a6fff87c682abee9e,7/24/2019 1:43,7/24/2019 3:28,0,1.75,1.75,1,Horizontal,-10,68,0.605,0,1,hour
18bc027a7a6fff87c682abee9e,7/24/2019 1:43,7/24/2019 3:28,0,1.75,1.75,1,Horizontal,10,69,0.504,1,1,hour
18bc027a7a6fff87c682abee9e,7/24/2019 1:43,7/24/2019 3:28,0,1.75,1.75,1,Vertical,-6,70,1.062,0,1,hour
18bc027a7a6fff87c682abee9e,7/24/2019 1:43,7/24/2019 3:28,0,1.75,1.75,1,Vertical,-8,71,0.663,0,1,hour
18bc027a7a6fff87c682abee9e,7/24/2019 1:43,7/24/2019 3:28,0,1.75,1.75,1,Vertical,-2,72,0.745,0,1,hour
18bc027a7a6fff87c682abee9e,7/24/2019 1:43,7/24/2019 3:28,0,1.75,1.75,1,Horizontal,8,73,0.588,1,1,hour
18bc027a7a6fff87c682abee9e,7/24/2019 1:43,7/24/2019 3:28,0,1.75,1.75,1,Horizontal,-8,74,0.638,0,1,hour
18bc027a7a6fff87c682abee9e,7/24/2019 1:43,7/24/2019 3:28,0,1.75,1.75,1,Horizontal,-2,75,0.948,0,1,hour
18bc027a7a6fff87c682abee9e,7/24/2019 1:43,7/24/2019 3:28,0,1.75,1.75,1,Vertical,0,76,3.225,1,1,hour
18bc027a7a6fff87c682abee9e,7/24/2019 1:43,7/24/2019 3:28,0,1.75,1.75,1,Vertical,8,77,0.942,1,1,hour
18bc027a7a6fff87c682abee9e,7/24/2019 1:43,7/24/2019 3:28,0,1.75,1.75,1,Vertical,-8,78,1.022,0,1,hour
18bc027a7a6fff87c682abee9e,7/24/2019 1:43,7/24/2019 3:28,0,1.75,1.75,1,Horizontal,-6,79,0.917,0,1,hour
18bc027a7a6fff87c682abee9e,7/24/2019 1:43,7/24/2019 3:28,0,1.75,1.75,1,Horizontal,2,80,1.221,1,1,hour
18bc027a7a6fff87c682abee9e,7/24/2019 1:43,7/24/2019 3:28,0,1.75,1.75,1,Horizontal,6,81,0.636,1,1,hour
18bc027a7a6fff87c682abee9e,7/24/2019 1:43,7/24/2019 3:28,0,1.75,1.75,1,Vertical,-10,82,0.693,0,1,hour
18bc027a7a6fff87c682abee9e,7/24/2019 1:43,7/24/2019 3:28,0,1.75,1.75,1,Vertical,2,83,1.073,1,1,hour
18bc027a7a6fff87c682abee9e,7/24/2019 1:43,7/24/2019 3:28,0,1.75,1.75,1,Vertical,2,84,0.963,1,1,hour
18bc027a7a6fff87c682abee9e,7/24/2019 1:43,7/24/2019 3:28,0,1.75,1.75,1,Horizontal,0,85,5.824,1,1,hour
18bc027a7a6fff87c682abee9e,7/24/2019 1:43,7/24/2019 3:28,0,1.75,1.75,1,Horizontal,8,86,0.604,1,1,hour
18bc027a7a6fff87c682abee9e,7/24/2019 1:43,7/24/2019 3:28,0,1.75,1.75,1,Horizontal,-4,87,0.702,0,1,hour
18bc027a7a6fff87c682abee9e,7/24/2019 1:43,7/24/2019 3:28,0,1.75,1.75,1,Vertical,0,88,3.103,0,1,hour
18bc027a7a6fff87c682abee9e,7/24/2019 1:43,7/24/2019 3:28,0,1.75,1.75,1,Vertical,6,89,0.743,1,1,hour
18bc027a7a6fff87c682abee9e,7/24/2019 1:43,7/24/2019 3:28,0,1.75,1.75,1,Vertical,6,90,0.593,1,1,hour
18bc027a7a6fff87c682abee9e,7/24/2019 1:43,7/24/2019 3:28,0,1.75,1.75,1,Horizontal,0,91,8.423,1,1,hour
18bc027a7a6fff87c682abee9e,7/24/2019 1:43,7/24/2019 3:28,0,1.75,1.75,1,Horizontal,-6,92,0.635,0,1,hour
18bc027a7a6fff87c682abee9e,7/24/2019 1:43,7/24/2019 3:28,0,1.75,1.75,1,Horizontal,8,93,0.649,1,1,hour
18bc027a7a6fff87c682abee9e,7/24/2019 1:43,7/24/2019 3:28,0,1.75,1.75,1,Vertical,-6,94,0.751,0,1,hour
18bc027a7a6fff87c682abee9e,7/24/2019 1:43,7/24/2019 3:28,0,1.75,1.75,1,Vertical,-10,95,0.706,0,1,hour
18bc027a7a6fff87c682abee9e,7/24/2019 1:43,7/24/2019 3:28,0,1.75,1.75,1,Vertical,-8,96,0.628,0,1,hour
18bc027a7a6fff87c682abee9e,7/24/2019 1:43,7/24/2019 3:28,0,1.75,1.75,1,Horizontal,-4,97,0.741,0,1,hour
18bc027a7a6fff87c682abee9e,7/24/2019 1:43,7/24/2019 3:28,0,1.75,1.75,1,Horizontal,-10,98,0.772,0,1,hour
18bc027a7a6fff87c682abee9e,7/24/2019 1:43,7/24/2019 3:28,0,1.75,1.75,1,Horizontal,2,99,1.034,1,1,hour
18bc027a7a6fff87c682abee9e,7/24/2019 1:43,7/24/2019 3:28,0,1.75,1.75,1,Vertical,0,100,1,1,1,hour
18bc027a7a6fff87c682abee9e,7/24/2019 1:43,7/24/2019 3:28,0,1.75,1.75,1,Vertical,-4,101,2.486,0,1,hour
18bc027a7a6fff87c682abee9e,7/24/2019 1:43,7/24/2019 3:28,0,1.75,1.75,1,Vertical,-4,102,1.039,0,1,hour
18bc027a7a6fff87c682abee9e,7/24/2019 1:43,7/24/2019 3:28,0,1.75,1.75,1,Horizontal,4,103,0.622,1,1,hour
18bc027a7a6fff87c682abee9e,7/24/2019 1:43,7/24/2019 3:28,0,1.75,1.75,1,Horizontal,-6,104,0.65,0,1,hour
18bc027a7a6fff87c682abee9e,7/24/2019 1:43,7/24/2019 3:28,0,1.75,1.75,1,Horizontal,-10,105,0.57,0,1,hour
18bc027a7a6fff87c682abee9e,7/24/2019 1:43,7/24/2019 3:28,0,1.75,1.75,1,Vertical,-6,106,1.128,0,1,hour
18bc027a7a6fff87c682abee9e,7/24/2019 1:43,7/24/2019 3:28,0,1.75,1.75,1,Vertical,8,107,0.712,1,1,hour
18bc027a7a6fff87c682abee9e,7/24/2019 1:43,7/24/2019 3:28,0,1.75,1.75,1,Vertical,4,108,1.069,1,1,hour
18bc027a7a6fff87c682abee9e,7/24/2019 1:43,7/24/2019 3:28,0,1.75,1.75,1,Horizontal,2,109,0.587,1,1,hour
18bc027a7a6fff87c682abee9e,7/24/2019 1:43,7/24/2019 3:28,0,1.75,1.75,1,Horizontal,8,110,0.569,1,1,hour
18bc027a7a6fff87c682abee9e,7/24/2019 1:43,7/24/2019 3:28,0,1.75,1.75,1,Horizontal,-10,111,0.548,0,1,hour
18bc027a7a6fff87c682abee9e,7/24/2019 1:43,7/24/2019 3:28,0,1.75,1.75,1,Vertical,-8,112,0.904,0,1,hour
18bc027a7a6fff87c682abee9e,7/24/2019 1:43,7/24/2019 3:28,0,1.75,1.75,1,Vertical,-2,113,6.027,0,1,hour
18bc027a7a6fff87c682abee9e,7/24/2019 1:43,7/24/2019 3:28,0,1.75,1.75,1,Vertical,-6,114,0.662,0,1,hour
18bc027a7a6fff87c682abee9e,7/24/2019 1:43,7/24/2019 3:28,0,1.75,1.75,1,Horizontal,0,115,1.908,1,1,hour
18bc027a7a6fff87c682abee9e,7/24/2019 1:43,7/24/2019 3:28,0,1.75,1.75,1,Horizontal,10,116,0.526,1,1,hour
18bc027a7a6fff87c682abee9e,7/24/2019 1:43,7/24/2019 3:28,0,1.75,1.75,1,Horizontal,6,117,0.52,1,1,hour
18bc027a7a6fff87c682abee9e,7/24/2019 1:43,7/24/2019 3:28,0,1.75,1.75,1,Vertical,0,118,1.791,1,1,hour
18bc027a7a6fff87c682abee9e,7/24/2019 1:43,7/24/2019 3:28,0,1.75,1.75,1,Vertical,10,119,0.691,1,1,hour
18bc027a7a6fff87c682abee9e,7/24/2019 1:43,7/24/2019 3:28,0,1.75,1.75,1,Vertical,10,120,0.707,1,1,hour
18bc027a7a6fff87c682abee9e,7/24/2019 1:43,7/24/2019 3:28,0,1.75,1.75,1,Horizontal,6,121,0.841,1,1,hour
18bc027a7a6fff87c682abee9e,7/24/2019 1:43,7/24/2019 3:28,0,1.75,1.75,1,Horizontal,-2,122,0.831,0,1,hour
18bc027a7a6fff87c682abee9e,7/24/2019 1:43,7/24/2019 3:28,0,1.75,1.75,1,Horizontal,4,123,0.801,1,1,hour
18bc027a7a6fff87c682abee9e,7/24/2019 1:43,7/24/2019 3:28,0,1.75,1.75,1,Vertical,0,124,2.501,1,1,hour
18bc027a7a6fff87c682abee9e,7/24/2019 1:43,7/24/2019 3:28,0,1.75,1.75,1,Vertical,6,125,0.684,1,1,hour
18bc027a7a6fff87c682abee9e,7/24/2019 1:43,7/24/2019 3:28,0,1.75,1.75,1,Vertical,-6,126,1.418,0,1,hour
18bc027a7a6fff87c682abee9e,7/24/2019 1:43,7/24/2019 3:28,0,1.75,1.75,1,Horizontal,0,127,2.317,0,1,hour
18bc027a7a6fff87c682abee9e,7/24/2019 1:43,7/24/2019 3:28,0,1.75,1.75,1,Horizontal,6,128,0.937,1,1,hour
18bc027a7a6fff87c682abee9e,7/24/2019 1:43,7/24/2019 3:28,0,1.75,1.75,1,Horizontal,6,129,0.654,1,1,hour
18bc027a7a6fff87c682abee9e,7/24/2019 1:43,7/24/2019 3:28,0,1.75,1.75,1,Vertical,-2,130,6.538,1,1,hour
18bc027a7a6fff87c682abee9e,7/24/2019 1:43,7/24/2019 3:28,0,1.75,1.75,1,Vertical,6,131,1.171,1,1,hour
18bc027a7a6fff87c682abee9e,7/24/2019 1:43,7/24/2019 3:28,0,1.75,1.75,1,Vertical,4,132,0.945,1,1,hour
18bc027a7a6fff87c682abee9e,7/24/2019 1:43,7/24/2019 3:28,0,1.75,1.75,1,Horizontal,0,133,4.041,1,1,hour
18bc027a7a6fff87c682abee9e,7/24/2019 1:43,7/24/2019 3:28,0,1.75,1.75,1,Horizontal,-2,134,0.619,0,1,hour
18bc027a7a6fff87c682abee9e,7/24/2019 1:43,7/24/2019 3:28,0,1.75,1.75,1,Horizontal,-4,135,0.835,0,1,hour
18bc027a7a6fff87c682abee9e,7/24/2019 1:43,7/24/2019 3:28,0,1.75,1.75,1,Vertical,0,136,2.519,1,1,hour
18bc027a7a6fff87c682abee9e,7/24/2019 1:43,7/24/2019 3:28,0,1.75,1.75,1,Vertical,2,137,0.876,1,1,hour
18bc027a7a6fff87c682abee9e,7/24/2019 1:43,7/24/2019 3:28,0,1.75,1.75,1,Vertical,10,138,0.616,1,1,hour
18bc027a7a6fff87c682abee9e,7/24/2019 1:43,7/24/2019 3:28,0,1.75,1.75,1,Horizontal,-6,139,0.609,0,1,hour
18bc027a7a6fff87c682abee9e,7/24/2019 1:43,7/24/2019 3:28,0,1.75,1.75,1,Horizontal,8,140,0.51,1,1,hour
18bc027a7a6fff87c682abee9e,7/24/2019 1:43,7/24/2019 3:28,0,1.75,1.75,1,Horizontal,4,141,0.633,1,1,hour
18bc027a7a6fff87c682abee9e,7/24/2019 1:43,7/24/2019 3:28,0,1.75,1.75,1,Vertical,0,142,1.416,1,1,hour
18bc027a7a6fff87c682abee9e,7/24/2019 1:43,7/24/2019 3:28,0,1.75,1.75,1,Vertical,-4,143,0.735,0,1,hour
18bc027a7a6fff87c682abee9e,7/24/2019 1:43,7/24/2019 3:28,0,1.75,1.75,1,Vertical,2,144,0.969,1,1,hour
18bc027a7a6fff87c682abee9e,7/24/2019 1:43,7/24/2019 3:28,0,1.75,1.75,1,Horizontal,0,145,6.1,0,1,hour
18bc027a7a6fff87c682abee9e,7/24/2019 1:43,7/24/2019 3:28,0,1.75,1.75,1,Horizontal,2,146,1.171,1,1,hour
18bc027a7a6fff87c682abee9e,7/24/2019 1:43,7/24/2019 3:28,0,1.75,1.75,1,Horizontal,2,147,1.161,1,1,hour
18bc027a7a6fff87c682abee9e,7/24/2019 1:43,7/24/2019 3:28,0,1.75,1.75,1,Vertical,-8,148,0.649,0,1,hour
18bc027a7a6fff87c682abee9e,7/24/2019 1:43,7/24/2019 3:28,0,1.75,1.75,1,Vertical,-10,149,0.586,0,1,hour
18bc027a7a6fff87c682abee9e,7/24/2019 1:43,7/24/2019 3:28,0,1.75,1.75,1,Vertical,-2,150,1.223,0,1,hour
18bc027a7a6fff87c682abee9e,7/24/2019 1:43,7/24/2019 3:28,0,1.75,1.75,1,Horizontal,-4,151,0.769,0,1,hour
18bc027a7a6fff87c682abee9e,7/24/2019 1:43,7/24/2019 3:28,0,1.75,1.75,1,Horizontal,-10,152,0.546,0,1,hour
18bc027a7a6fff87c682abee9e,7/24/2019 1:43,7/24/2019 3:28,0,1.75,1.75,1,Horizontal,2,153,0.909,1,1,hour
18bc027a7a6fff87c682abee9e,7/24/2019 1:43,7/24/2019 3:28,0,1.75,1.75,1,Vertical,0,154,1.24,1,1,hour
18bc027a7a6fff87c682abee9e,7/24/2019 1:43,7/24/2019 3:28,0,1.75,1.75,1,Vertical,-8,155,0.622,0,1,hour
18bc027a7a6fff87c682abee9e,7/24/2019 1:43,7/24/2019 3:28,0,1.75,1.75,1,Vertical,2,156,1.234,1,1,hour
18bc027a7a6fff87c682abee9e,7/24/2019 1:43,7/24/2019 3:28,0,1.75,1.75,1,Horizontal,0,157,3.715,1,1,hour
18bc027a7a6fff87c682abee9e,7/24/2019 1:43,7/24/2019 3:28,0,1.75,1.75,1,Horizontal,4,158,0.718,1,1,hour
18bc027a7a6fff87c682abee9e,7/24/2019 1:43,7/24/2019 3:28,0,1.75,1.75,1,Horizontal,-2,159,0.598,0,1,hour
18bc027a7a6fff87c682abee9e,7/24/2019 1:43,7/24/2019 3:28,0,1.75,1.75,1,Vertical,8,160,1.031,1,1,hour
18bc027a7a6fff87c682abee9e,7/24/2019 1:43,7/24/2019 3:28,0,1.75,1.75,1,Vertical,-6,161,0.629,0,1,hour
18bc027a7a6fff87c682abee9e,7/24/2019 1:43,7/24/2019 3:28,0,1.75,1.75,1,Vertical,-4,162,1.037,0,1,hour
18bc027a7a6fff87c682abee9e,7/24/2019 1:43,7/24/2019 3:28,0,1.75,1.75,1,Horizontal,2,163,0.678,1,1,hour
18bc027a7a6fff87c682abee9e,7/24/2019 1:43,7/24/2019 3:28,0,1.75,1.75,1,Horizontal,8,164,0.486,1,1,hour
18bc027a7a6fff87c682abee9e,7/24/2019 1:43,7/24/2019 3:28,0,1.75,1.75,1,Horizontal,-8,165,0.595,0,1,hour
18bc027a7a6fff87c682abee9e,7/24/2019 1:43,7/24/2019 3:28,0,1.75,1.75,1,Vertical,-10,166,0.666,0,1,hour
18bc027a7a6fff87c682abee9e,7/24/2019 1:43,7/24/2019 3:28,0,1.75,1.75,1,Vertical,10,167,0.82,1,1,hour
18bc027a7a6fff87c682abee9e,7/24/2019 1:43,7/24/2019 3:28,0,1.75,1.75,1,Vertical,-4,168,0.608,0,1,hour
18bc027a7a6fff87c682abee9e,7/24/2019 1:43,7/24/2019 3:28,0,1.75,1.75,1,Horizontal,8,169,0.652,1,1,hour
18bc027a7a6fff87c682abee9e,7/24/2019 1:43,7/24/2019 3:28,0,1.75,1.75,1,Horizontal,8,170,0.698,1,1,hour
18bc027a7a6fff87c682abee9e,7/24/2019 1:43,7/24/2019 3:28,0,1.75,1.75,1,Horizontal,-8,171,0.538,0,1,hour
18bc027a7a6fff87c682abee9e,7/24/2019 1:43,7/24/2019 3:28,0,1.75,1.75,1,Vertical,0,172,1.784,0,1,hour
18bc027a7a6fff87c682abee9e,7/24/2019 1:43,7/24/2019 3:28,0,1.75,1.75,1,Vertical,8,173,0.76,1,1,hour
18bc027a7a6fff87c682abee9e,7/24/2019 1:43,7/24/2019 3:28,0,1.75,1.75,1,Vertical,-2,174,1.629,0,1,hour
18bc027a7a6fff87c682abee9e,7/24/2019 1:43,7/24/2019 3:28,0,1.75,1.75,1,Horizontal,0,175,1.699,0,1,hour
18bc027a7a6fff87c682abee9e,7/24/2019 1:43,7/24/2019 3:28,0,1.75,1.75,1,Horizontal,-8,176,0.528,0,1,hour
18bc027a7a6fff87c682abee9e,7/24/2019 1:43,7/24/2019 3:28,0,1.75,1.75,1,Horizontal,-4,177,0.541,0,1,hour
18bc027a7a6fff87c682abee9e,7/24/2019 1:43,7/24/2019 3:28,0,1.75,1.75,1,Vertical,8,178,0.731,1,1,hour
18bc027a7a6fff87c682abee9e,7/24/2019 1:43,7/24/2019 3:28,0,1.75,1.75,1,Vertical,-8,179,0.634,0,1,hour
18bc027a7a6fff87c682abee9e,7/24/2019 1:43,7/24/2019 3:28,0,1.75,1.75,1,Vertical,2,180,1.7,1,1,hour
18bc027a7a6fff87c682abee9e,7/24/2019 1:43,7/24/2019 3:28,0,1.75,1.75,1,Horizontal,10,181,0.749,1,1,hour
18bc027a7a6fff87c682abee9e,7/24/2019 1:43,7/24/2019 3:28,0,1.75,1.75,1,Horizontal,-6,182,0.497,0,1,hour
18bc027a7a6fff87c682abee9e,7/24/2019 1:43,7/24/2019 3:28,0,1.75,1.75,1,Horizontal,4,183,0.512,1,1,hour
18bc027a7a6fff87c682abee9e,7/24/2019 1:43,7/24/2019 3:28,0,1.75,1.75,1,Vertical,-6,184,1.005,0,1,hour
18bc027a7a6fff87c682abee9e,7/24/2019 1:43,7/24/2019 3:28,0,1.75,1.75,1,Vertical,-6,185,0.948,0,1,hour
18bc027a7a6fff87c682abee9e,7/24/2019 1:43,7/24/2019 3:28,0,1.75,1.75,1,Vertical,-10,186,0.643,0,1,hour
18bc027a7a6fff87c682abee9e,7/24/2019 1:43,7/24/2019 3:28,0,1.75,1.75,1,Horizontal,8,187,0.526,1,1,hour
18bc027a7a6fff87c682abee9e,7/24/2019 1:43,7/24/2019 3:28,0,1.75,1.75,1,Horizontal,-6,188,0.553,0,1,hour
18bc027a7a6fff87c682abee9e,7/24/2019 1:43,7/24/2019 3:28,0,1.75,1.75,1,Horizontal,-6,189,0.481,0,1,hour
18bc027a7a6fff87c682abee9e,7/24/2019 1:43,7/24/2019 3:28,0,1.75,1.75,1,Vertical,0,190,0.84,0,1,hour
18bc027a7a6fff87c682abee9e,7/24/2019 1:43,7/24/2019 3:28,0,1.75,1.75,1,Vertical,6,191,0.728,1,1,hour
18bc027a7a6fff87c682abee9e,7/24/2019 1:43,7/24/2019 3:28,0,1.75,1.75,1,Vertical,10,192,0.638,1,1,hour
18bc027a7a6fff87c682abee9e,7/24/2019 1:43,7/24/2019 3:28,0,1.75,1.75,1,Horizontal,0,193,2.877,1,1,hour
18bc027a7a6fff87c682abee9e,7/24/2019 1:43,7/24/2019 3:28,0,1.75,1.75,1,Horizontal,6,194,0.607,1,1,hour
18bc027a7a6fff87c682abee9e,7/24/2019 1:43,7/24/2019 3:28,0,1.75,1.75,1,Horizontal,2,195,0.979,1,1,hour
18bc027a7a6fff87c682abee9e,7/24/2019 1:43,7/24/2019 3:28,0,1.75,1.75,1,Vertical,-8,196,1.004,0,1,hour
18bc027a7a6fff87c682abee9e,7/24/2019 1:43,7/24/2019 3:28,0,1.75,1.75,1,Vertical,-4,197,0.839,0,1,hour
18bc027a7a6fff87c682abee9e,7/24/2019 1:43,7/24/2019 3:28,0,1.75,1.75,1,Vertical,8,198,0.651,1,1,hour
18bc027a7a6fff87c682abee9e,7/24/2019 1:43,7/24/2019 3:28,0,1.75,1.75,1,Horizontal,0,199,1.297,0,1,hour
18bc027a7a6fff87c682abee9e,7/24/2019 1:43,7/24/2019 3:28,0,1.75,1.75,1,Horizontal,-10,200,0.585,0,1,hour
18bc027a7a6fff87c682abee9e,7/24/2019 1:43,7/24/2019 3:28,0,1.75,1.75,1,Horizontal,-8,201,0.57,0,1,hour
18bc027a7a6fff87c682abee9e,7/24/2019 1:43,7/24/2019 3:28,0,1.75,1.75,1,Vertical,-8,202,0.733,0,1,hour
18bc027a7a6fff87c682abee9e,7/24/2019 1:43,7/24/2019 3:28,0,1.75,1.75,1,Vertical,4,203,0.585,1,1,hour
18bc027a7a6fff87c682abee9e,7/24/2019 1:43,7/24/2019 3:28,0,1.75,1.75,1,Vertical,4,204,0.553,1,1,hour
18bc027a7a6fff87c682abee9e,7/24/2019 1:43,7/24/2019 3:28,0,1.75,1.75,1,Horizontal,0,205,0.647,1,1,hour
18bc027a7a6fff87c682abee9e,7/24/2019 1:43,7/24/2019 3:28,0,1.75,1.75,1,Horizontal,10,206,0.493,1,1,hour
18bc027a7a6fff87c682abee9e,7/24/2019 1:43,7/24/2019 3:28,0,1.75,1.75,1,Horizontal,-2,207,0.606,0,1,hour
18bc027a7a6fff87c682abee9e,7/24/2019 1:43,7/24/2019 3:28,0,1.75,1.75,1,Vertical,0,208,1.166,1,1,hour
18bc027a7a6fff87c682abee9e,7/24/2019 1:43,7/24/2019 3:28,0,1.75,1.75,1,Vertical,4,209,0.619,1,1,hour
18bc027a7a6fff87c682abee9e,7/24/2019 1:43,7/24/2019 3:28,0,1.75,1.75,1,Vertical,8,210,0.644,1,1,hour
18bc027a7a6fff87c682abee9e,7/24/2019 1:43,7/24/2019 3:28,0,1.75,1.75,1,Horizontal,6,211,0.643,1,1,hour
18bc027a7a6fff87c682abee9e,7/24/2019 1:43,7/24/2019 3:28,0,1.75,1.75,1,Horizontal,-8,212,0.571,0,1,hour
18bc027a7a6fff87c682abee9e,7/24/2019 1:43,7/24/2019 3:28,0,1.75,1.75,1,Horizontal,-10,213,0.675,0,1,hour
18bc027a7a6fff87c682abee9e,7/24/2019 1:43,7/24/2019 3:28,0,1.75,1.75,1,Vertical,0,214,1.365,1,1,hour
18bc027a7a6fff87c682abee9e,7/24/2019 1:43,7/24/2019 3:28,0,1.75,1.75,1,Vertical,10,215,0.612,1,1,hour
18bc027a7a6fff87c682abee9e,7/24/2019 1:43,7/24/2019 3:28,0,1.75,1.75,1,Vertical,4,216,0.908,1,1,hour
18bc027a7a6fff87c682abee9e,7/24/2019 1:43,7/24/2019 3:28,0,1.75,1.75,1,Horizontal,0,217,1.038,1,1,hour
18bc027a7a6fff87c682abee9e,7/24/2019 1:43,7/24/2019 3:28,0,1.75,1.75,1,Horizontal,-4,218,0.584,0,1,hour
18bc027a7a6fff87c682abee9e,7/24/2019 1:43,7/24/2019 3:28,0,1.75,1.75,1,Horizontal,10,219,0.545,1,1,hour
18bc027a7a6fff87c682abee9e,7/24/2019 1:43,7/24/2019 3:28,0,1.75,1.75,1,Vertical,2,220,0.765,1,1,hour
18bc027a7a6fff87c682abee9e,7/24/2019 1:43,7/24/2019 3:28,0,1.75,1.75,1,Vertical,-4,221,0.63,0,1,hour
18bc027a7a6fff87c682abee9e,7/24/2019 1:43,7/24/2019 3:28,0,1.75,1.75,1,Vertical,-2,222,3.396,1,1,hour
18bc027a7a6fff87c682abee9e,7/24/2019 1:43,7/24/2019 3:28,0,1.75,1.75,1,Horizontal,0,223,2.894,0,1,hour
18bc027a7a6fff87c682abee9e,7/24/2019 1:43,7/24/2019 3:28,0,1.75,1.75,1,Horizontal,10,224,0.521,1,1,hour
18bc027a7a6fff87c682abee9e,7/24/2019 1:43,7/24/2019 3:28,0,1.75,1.75,1,Horizontal,-10,225,0.514,0,1,hour
18bc027a7a6fff87c682abee9e,7/24/2019 1:43,7/24/2019 3:28,0,1.75,1.75,1,Vertical,0,226,2.89,1,1,hour
18bc027a7a6fff87c682abee9e,7/24/2019 1:43,7/24/2019 3:28,0,1.75,1.75,1,Vertical,6,227,0.974,1,1,hour
18bc027a7a6fff87c682abee9e,7/24/2019 1:43,7/24/2019 3:28,0,1.75,1.75,1,Vertical,6,228,0.663,1,1,hour
18bc027a7a6fff87c682abee9e,7/24/2019 1:43,7/24/2019 3:28,0,1.75,1.75,1,Horizontal,-10,229,0.553,0,1,hour
18bc027a7a6fff87c682abee9e,7/24/2019 1:43,7/24/2019 3:28,0,1.75,1.75,1,Horizontal,10,230,0.528,1,1,hour
18bc027a7a6fff87c682abee9e,7/24/2019 1:43,7/24/2019 3:28,0,1.75,1.75,1,Horizontal,4,231,0.904,1,1,hour
18bc027a7a6fff87c682abee9e,7/24/2019 1:43,7/24/2019 3:28,0,1.75,1.75,1,Vertical,0,232,2.246,1,1,hour
18bc027a7a6fff87c682abee9e,7/24/2019 1:43,7/24/2019 3:28,0,1.75,1.75,1,Vertical,-6,233,0.571,0,1,hour
18bc027a7a6fff87c682abee9e,7/24/2019 1:43,7/24/2019 3:28,0,1.75,1.75,1,Vertical,-2,234,0.862,1,1,hour
18bc027a7a6fff87c682abee9e,7/24/2019 1:43,7/24/2019 3:28,0,1.75,1.75,1,Horizontal,-2,235,0.692,0,1,hour
18bc027a7a6fff87c682abee9e,7/24/2019 1:43,7/24/2019 3:28,0,1.75,1.75,1,Horizontal,-4,236,0.54,0,1,hour
18bc027a7a6fff87c682abee9e,7/24/2019 1:43,7/24/2019 3:28,0,1.75,1.75,1,Horizontal,-6,237,0.708,0,1,hour
18bc027a7a6fff87c682abee9e,7/24/2019 1:43,7/24/2019 3:28,0,1.75,1.75,1,Vertical,-10,238,0.695,0,1,hour
18bc027a7a6fff87c682abee9e,7/24/2019 1:43,7/24/2019 3:28,0,1.75,1.75,1,Vertical,10,239,0.671,1,1,hour
18bc027a7a6fff87c682abee9e,7/24/2019 1:43,7/24/2019 3:28,0,1.75,1.75,1,Vertical,-10,240,0.642,0,1,hour
18bc027a7a6fff87c682abee9e,7/24/2019 1:43,7/24/2019 3:28,0,1.75,1.75,1,Horizontal,10,241,2.69,1,1,hour
18bc027a7a6fff87c682abee9e,7/24/2019 1:43,7/24/2019 3:28,0,1.75,1.75,1,Horizontal,-6,242,1.861,0,1,hour
18bc027a7a6fff87c682abee9e,7/24/2019 1:43,7/24/2019 3:28,0,1.75,1.75,1,Horizontal,-10,243,0.589,0,1,hour
18bc027a7a6fff87c682abee9e,7/24/2019 1:43,7/24/2019 3:28,0,1.75,1.75,1,Vertical,-4,244,1.136,0,1,hour
18bc027a7a6fff87c682abee9e,7/24/2019 1:43,7/24/2019 3:28,0,1.75,1.75,1,Vertical,10,245,0.671,1,1,hour
18bc027a7a6fff87c682abee9e,7/24/2019 1:43,7/24/2019 3:28,0,1.75,1.75,1,Vertical,-10,246,0.562,0,1,hour
18bc027a7a6fff87c682abee9e,7/24/2019 1:43,7/24/2019 3:28,0,1.75,1.75,1,Horizontal,0,247,1.065,1,1,hour
18bc027a7a6fff87c682abee9e,7/24/2019 1:43,7/24/2019 3:28,0,1.75,1.75,1,Horizontal,-4,248,0.714,0,1,hour
18bc027a7a6fff87c682abee9e,7/24/2019 1:43,7/24/2019 3:28,0,1.75,1.75,1,Horizontal,-2,249,1.047,0,1,hour
18bc027a7a6fff87c682abee9e,7/24/2019 1:43,7/24/2019 3:28,0,1.75,1.75,1,Vertical,2,250,1.105,1,1,hour
18bc027a7a6fff87c682abee9e,7/24/2019 1:43,7/24/2019 3:28,0,1.75,1.75,1,Vertical,-4,251,0.547,0,1,hour
18bc027a7a6fff87c682abee9e,7/24/2019 1:43,7/24/2019 3:28,0,1.75,1.75,1,Vertical,6,252,0.759,1,1,hour
18bc027a7a6fff87c682abee9e,7/24/2019 1:43,7/24/2019 3:28,0,1.75,1.75,1,Horizontal,0,253,2.815,1,1,hour
18bc027a7a6fff87c682abee9e,7/24/2019 1:43,7/24/2019 3:28,0,1.75,1.75,1,Horizontal,-2,254,1.049,0,1,hour
18bc027a7a6fff87c682abee9e,7/24/2019 1:43,7/24/2019 3:28,0,1.75,1.75,1,Horizontal,10,255,0.531,1,1,hour
18bc027a7a6fff87c682abee9e,7/24/2019 1:43,7/24/2019 3:28,0,1.75,1.75,1,Vertical,0,256,2.842,1,1,hour
18bc027a7a6fff87c682abee9e,7/24/2019 1:43,7/24/2019 3:28,0,1.75,1.75,1,Vertical,2,257,0.776,1,1,hour
18bc027a7a6fff87c682abee9e,7/24/2019 1:43,7/24/2019 3:28,0,1.75,1.75,1,Vertical,-10,258,0.686,0,1,hour
18bc027a7a6fff87c682abee9e,7/24/2019 1:43,7/24/2019 3:28,0,1.75,1.75,1,Horizontal,4,259,0.649,1,1,hour
18bc027a7a6fff87c682abee9e,7/24/2019 1:43,7/24/2019 3:28,0,1.75,1.75,1,Horizontal,-8,260,0.514,0,1,hour
18bc027a7a6fff87c682abee9e,7/24/2019 1:43,7/24/2019 3:28,0,1.75,1.75,1,Horizontal,4,261,0.523,1,1,hour
18bc027a7a6fff87c682abee9e,7/24/2019 1:43,7/24/2019 3:28,0,1.75,1.75,1,Vertical,6,262,0.793,1,1,hour
18bc027a7a6fff87c682abee9e,7/24/2019 1:43,7/24/2019 3:28,0,1.75,1.75,1,Vertical,10,263,0.652,1,1,hour
18bc027a7a6fff87c682abee9e,7/24/2019 1:43,7/24/2019 3:28,0,1.75,1.75,1,Vertical,-2,264,3.593,1,1,hour
18bc027a7a6fff87c682abee9e,7/24/2019 1:43,7/24/2019 3:28,0,1.75,1.75,1,Horizontal,0,265,4.82,1,1,hour
18bc027a7a6fff87c682abee9e,7/24/2019 1:43,7/24/2019 3:28,0,1.75,1.75,1,Horizontal,4,266,0.628,1,1,hour
18bc027a7a6fff87c682abee9e,7/24/2019 1:43,7/24/2019 3:28,0,1.75,1.75,1,Horizontal,-4,267,0.812,0,1,hour
18bc027a7a6fff87c682abee9e,7/24/2019 1:43,7/24/2019 3:28,0,1.75,1.75,1,Vertical,0,268,4.353,1,1,hour
18bc027a7a6fff87c682abee9e,7/24/2019 1:43,7/24/2019 3:28,0,1.75,1.75,1,Vertical,-2,269,4.945,1,1,hour
18bc027a7a6fff87c682abee9e,7/24/2019 1:43,7/24/2019 3:28,0,1.75,1.75,1,Vertical,4,270,0.905,1,1,hour
18bc027a7a6fff87c682abee9e,7/24/2019 1:43,7/24/2019 3:28,0,1.75,1.75,1,Horizontal,-8,271,0.639,0,1,hour
18bc027a7a6fff87c682abee9e,7/24/2019 1:43,7/24/2019 3:28,0,1.75,1.75,1,Horizontal,-8,272,0.602,0,1,hour
18bc027a7a6fff87c682abee9e,7/24/2019 1:43,7/24/2019 3:28,0,1.75,1.75,1,Horizontal,6,273,0.558,1,1,hour
18bc027a7a6fff87c682abee9e,7/24/2019 1:43,7/24/2019 3:28,0,1.75,1.75,1,Vertical,-10,274,0.61,0,1,hour
18bc027a7a6fff87c682abee9e,7/24/2019 1:43,7/24/2019 3:28,0,1.75,1.75,1,Vertical,2,275,1.362,1,1,hour
18bc027a7a6fff87c682abee9e,7/24/2019 1:43,7/24/2019 3:28,0,1.75,1.75,1,Vertical,-2,276,1.32,0,1,hour
18bc027a7a6fff87c682abee9e,7/24/2019 1:43,7/24/2019 3:28,0,1.75,1.75,1,Horizontal,0,277,5.012,1,1,hour
18bc027a7a6fff87c682abee9e,7/24/2019 1:43,7/24/2019 3:28,0,1.75,1.75,1,Horizontal,-4,278,0.598,0,1,hour
18bc027a7a6fff87c682abee9e,7/24/2019 1:43,7/24/2019 3:28,0,1.75,1.75,1,Horizontal,-6,279,0.572,0,1,hour
18bc027a7a6fff87c682abee9e,7/24/2019 1:43,7/24/2019 3:28,0,1.75,1.75,1,Vertical,0,280,1.307,0,1,hour
18bc027a7a6fff87c682abee9e,7/24/2019 1:43,7/24/2019 3:28,0,1.75,1.75,1,Vertical,10,281,0.625,1,1,hour
18bc027a7a6fff87c682abee9e,7/24/2019 1:43,7/24/2019 3:28,0,1.75,1.75,1,Vertical,-4,282,0.679,0,1,hour
18bc027a7a6fff87c682abee9e,7/24/2019 1:43,7/24/2019 3:28,0,1.75,1.75,1,Horizontal,4,283,0.534,1,1,hour
18bc027a7a6fff87c682abee9e,7/24/2019 1:43,7/24/2019 3:28,0,1.75,1.75,1,Horizontal,6,284,0.504,1,1,hour
18bc027a7a6fff87c682abee9e,7/24/2019 1:43,7/24/2019 3:28,0,1.75,1.75,1,Horizontal,10,285,0.507,1,1,hour
18bc027a7a6fff87c682abee9e,7/24/2019 1:43,7/24/2019 3:28,0,1.75,1.75,1,Vertical,0,286,2.59,1,1,hour
18bc027a7a6fff87c682abee9e,7/24/2019 1:43,7/24/2019 3:28,0,1.75,1.75,1,Vertical,-8,287,0.591,0,1,hour
18bc027a7a6fff87c682abee9e,7/24/2019 1:43,7/24/2019 3:28,0,1.75,1.75,1,Vertical,8,288,1.385,1,1,hour
18bc027a7a6fff87c682abee9e,7/24/2019 1:43,7/24/2019 3:28,0,1.75,1.75,1,Horizontal,0,289,4.916,1,1,hour
18bc027a7a6fff87c682abee9e,7/24/2019 1:43,7/24/2019 3:28,0,1.75,1.75,1,Horizontal,2,290,2.573,1,1,hour
18bc027a7a6fff87c682abee9e,7/24/2019 1:43,7/24/2019 3:28,0,1.75,1.75,1,Horizontal,-2,291,1.033,0,1,hour
18bc027a7a6fff87c682abee9e,7/24/2019 1:43,7/24/2019 3:28,0,1.75,1.75,1,Vertical,4,292,1.073,1,1,hour
18bc027a7a6fff87c682abee9e,7/24/2019 1:43,7/24/2019 3:28,0,1.75,1.75,1,Vertical,-6,293,0.782,0,1,hour
18bc027a7a6fff87c682abee9e,7/24/2019 1:43,7/24/2019 3:28,0,1.75,1.75,1,Vertical,4,294,0.813,1,1,hour
18bc027a7a6fff87c682abee9e,7/24/2019 1:43,7/24/2019 3:28,0,1.75,1.75,1,Horizontal,-2,295,0.909,0,1,hour
18bc027a7a6fff87c682abee9e,7/24/2019 1:43,7/24/2019 3:28,0,1.75,1.75,1,Horizontal,-8,296,0.561,0,1,hour
18bc027a7a6fff87c682abee9e,7/24/2019 1:43,7/24/2019 3:28,0,1.75,1.75,1,Horizontal,2,297,0.653,1,1,hour
18bc027a7a6fff87c682abee9e,7/24/2019 1:43,7/24/2019 3:28,0,1.75,1.75,1,Vertical,0,298,1.766,1,1,hour
18bc027a7a6fff87c682abee9e,7/24/2019 1:43,7/24/2019 3:28,0,1.75,1.75,1,Vertical,4,299,0.629,1,1,hour
18bc027a7a6fff87c682abee9e,7/24/2019 1:43,7/24/2019 3:28,0,1.75,1.75,1,Vertical,6,300,0.613,1,1,hour
18bc027a7a6fff87c682abee9e,7/24/2019 1:43,7/24/2019 3:28,0,1.75,1.75,1,Horizontal,0,301,6.765,1,1,hour
18bc027a7a6fff87c682abee9e,7/24/2019 1:43,7/24/2019 3:28,0,1.75,1.75,1,Horizontal,6,302,0.709,1,1,hour
18bc027a7a6fff87c682abee9e,7/24/2019 1:43,7/24/2019 3:28,0,1.75,1.75,1,Horizontal,8,303,0.606,1,1,hour
18bc027a7a6fff87c682abee9e,7/24/2019 1:43,7/24/2019 3:28,0,1.75,1.75,1,Vertical,0,304,1.71,1,1,hour
18bc027a7a6fff87c682abee9e,7/24/2019 1:43,7/24/2019 3:28,0,1.75,1.75,1,Vertical,8,305,0.713,1,1,hour
18bc027a7a6fff87c682abee9e,7/24/2019 1:43,7/24/2019 3:28,0,1.75,1.75,1,Vertical,8,306,0.697,1,1,hour
18bc027a7a6fff87c682abee9e,7/24/2019 1:43,7/24/2019 3:28,0,1.75,1.75,1,Horizontal,0,307,6.739,0,1,hour
18bc027a7a6fff87c682abee9e,7/24/2019 1:43,7/24/2019 3:28,0,1.75,1.75,1,Horizontal,-10,308,0.657,0,1,hour
18bc027a7a6fff87c682abee9e,7/24/2019 1:43,7/24/2019 3:28,0,1.75,1.75,1,Horizontal,10,309,0.679,1,1,hour
18bc027a7a6fff87c682abee9e,7/24/2019 1:43,7/24/2019 3:28,0,1.75,1.75,1,Vertical,-6,310,1.117,0,1,hour
18bc027a7a6fff87c682abee9e,7/24/2019 1:43,7/24/2019 3:28,0,1.75,1.75,1,Vertical,-8,311,0.84,0,1,hour
18bc027a7a6fff87c682abee9e,7/24/2019 1:43,7/24/2019 3:28,0,1.75,1.75,1,Vertical,-2,312,4.917,1,1,hour
18bc027a7a6fff87c682abee9e,7/24/2019 1:43,7/24/2019 3:28,0,1.75,1.75,1,Horizontal,8,313,0.599,1,1,hour
18bc027a7a6fff87c682abee9e,7/24/2019 1:43,7/24/2019 3:28,0,1.75,1.75,1,Horizontal,-8,314,0.61,0,1,hour
18bc027a7a6fff87c682abee9e,7/24/2019 1:43,7/24/2019 3:28,0,1.75,1.75,1,Horizontal,-2,315,0.815,0,1,hour
18bc027a7a6fff87c682abee9e,7/24/2019 1:43,7/24/2019 3:28,0,1.75,1.75,1,Vertical,0,316,5.72,1,1,hour
18bc027a7a6fff87c682abee9e,7/24/2019 1:43,7/24/2019 3:28,0,1.75,1.75,1,Vertical,8,317,0.735,1,1,hour
18bc027a7a6fff87c682abee9e,7/24/2019 1:43,7/24/2019 3:28,0,1.75,1.75,1,Vertical,-8,318,0.612,0,1,hour
18bc027a7a6fff87c682abee9e,7/24/2019 1:43,7/24/2019 3:28,0,1.75,1.75,1,Horizontal,-6,319,0.614,0,1,hour
18bc027a7a6fff87c682abee9e,7/24/2019 1:43,7/24/2019 3:28,0,1.75,1.75,1,Horizontal,2,320,0.612,1,1,hour
18bc027a7a6fff87c682abee9e,7/24/2019 1:43,7/24/2019 3:28,0,1.75,1.75,1,Horizontal,6,321,0.517,1,1,hour
18bc027a7a6fff87c682abee9e,7/24/2019 1:43,7/24/2019 3:28,0,1.75,1.75,1,Vertical,-10,322,0.684,0,1,hour
18bc027a7a6fff87c682abee9e,7/24/2019 1:43,7/24/2019 3:28,0,1.75,1.75,1,Vertical,2,323,0.775,1,1,hour
18bc027a7a6fff87c682abee9e,7/24/2019 1:43,7/24/2019 3:28,0,1.75,1.75,1,Vertical,2,324,1.104,1,1,hour
18bc027a7a6fff87c682abee9e,7/24/2019 1:43,7/24/2019 3:28,0,1.75,1.75,1,Horizontal,0,325,7.081,1,1,hour
18bc027a7a6fff87c682abee9e,7/24/2019 1:43,7/24/2019 3:28,0,1.75,1.75,1,Horizontal,8,326,0.61,1,1,hour
18bc027a7a6fff87c682abee9e,7/24/2019 1:43,7/24/2019 3:28,0,1.75,1.75,1,Horizontal,-4,327,0.54,0,1,hour
18bc027a7a6fff87c682abee9e,7/24/2019 1:43,7/24/2019 3:28,0,1.75,1.75,1,Vertical,0,328,1.519,1,1,hour
18bc027a7a6fff87c682abee9e,7/24/2019 1:43,7/24/2019 3:28,0,1.75,1.75,1,Vertical,6,329,0.779,1,1,hour
18bc027a7a6fff87c682abee9e,7/24/2019 1:43,7/24/2019 3:28,0,1.75,1.75,1,Vertical,6,330,0.537,1,1,hour
18bc027a7a6fff87c682abee9e,7/24/2019 1:43,7/24/2019 3:28,0,1.75,1.75,1,Horizontal,0,331,3.641,1,1,hour
18bc027a7a6fff87c682abee9e,7/24/2019 1:43,7/24/2019 3:28,0,1.75,1.75,1,Horizontal,-6,332,0.571,0,1,hour
18bc027a7a6fff87c682abee9e,7/24/2019 1:43,7/24/2019 3:28,0,1.75,1.75,1,Horizontal,8,333,0.631,1,1,hour
18bc027a7a6fff87c682abee9e,7/24/2019 1:43,7/24/2019 3:28,0,1.75,1.75,1,Vertical,-6,334,0.695,0,1,hour
18bc027a7a6fff87c682abee9e,7/24/2019 1:43,7/24/2019 3:28,0,1.75,1.75,1,Vertical,-10,335,0.55,0,1,hour
18bc027a7a6fff87c682abee9e,7/24/2019 1:43,7/24/2019 3:28,0,1.75,1.75,1,Vertical,-8,336,1.073,0,1,hour
18bc027a7a6fff87c682abee9e,7/24/2019 1:43,7/24/2019 3:28,0,1.75,1.75,1,Horizontal,-4,337,0.743,0,1,hour
18bc027a7a6fff87c682abee9e,7/24/2019 1:43,7/24/2019 3:28,0,1.75,1.75,1,Horizontal,-10,338,0.499,0,1,hour
18bc027a7a6fff87c682abee9e,7/24/2019 1:43,7/24/2019 3:28,0,1.75,1.75,1,Horizontal,2,339,0.618,1,1,hour
18bc027a7a6fff87c682abee9e,7/24/2019 1:43,7/24/2019 3:28,0,1.75,1.75,1,Vertical,0,340,0.712,1,1,hour
18bc027a7a6fff87c682abee9e,7/24/2019 1:43,7/24/2019 3:28,0,1.75,1.75,1,Vertical,-4,341,0.999,0,1,hour
18bc027a7a6fff87c682abee9e,7/24/2019 1:43,7/24/2019 3:28,0,1.75,1.75,1,Vertical,-4,342,0.788,0,1,hour
18bc027a7a6fff87c682abee9e,7/24/2019 1:43,7/24/2019 3:28,0,1.75,1.75,1,Horizontal,4,343,1.021,1,1,hour
18bc027a7a6fff87c682abee9e,7/24/2019 1:43,7/24/2019 3:28,0,1.75,1.75,1,Horizontal,-6,344,0.632,0,1,hour
18bc027a7a6fff87c682abee9e,7/24/2019 1:43,7/24/2019 3:28,0,1.75,1.75,1,Horizontal,-10,345,0.59,0,1,hour
18bc027a7a6fff87c682abee9e,7/24/2019 1:43,7/24/2019 3:28,0,1.75,1.75,1,Vertical,-6,346,0.691,0,1,hour
18bc027a7a6fff87c682abee9e,7/24/2019 1:43,7/24/2019 3:28,0,1.75,1.75,1,Vertical,8,347,0.702,1,1,hour
18bc027a7a6fff87c682abee9e,7/24/2019 1:43,7/24/2019 3:28,0,1.75,1.75,1,Vertical,4,348,0.531,1,1,hour
18bc027a7a6fff87c682abee9e,7/24/2019 1:43,7/24/2019 3:28,0,1.75,1.75,1,Horizontal,2,349,0.563,1,1,hour
18bc027a7a6fff87c682abee9e,7/24/2019 1:43,7/24/2019 3:28,0,1.75,1.75,1,Horizontal,8,350,0.48,1,1,hour
18bc027a7a6fff87c682abee9e,7/24/2019 1:43,7/24/2019 3:28,0,1.75,1.75,1,Horizontal,-10,351,0.506,0,1,hour
18bc027a7a6fff87c682abee9e,7/24/2019 1:43,7/24/2019 3:28,0,1.75,1.75,1,Vertical,-8,352,0.902,0,1,hour
18bc027a7a6fff87c682abee9e,7/24/2019 1:43,7/24/2019 3:28,0,1.75,1.75,1,Vertical,-2,353,1.145,0,1,hour
18bc027a7a6fff87c682abee9e,7/24/2019 1:43,7/24/2019 3:28,0,1.75,1.75,1,Vertical,-6,354,0.706,0,1,hour
18bc027a7a6fff87c682abee9e,7/24/2019 1:43,7/24/2019 3:28,0,1.75,1.75,1,Horizontal,0,355,0.825,1,1,hour
18bc027a7a6fff87c682abee9e,7/24/2019 1:43,7/24/2019 3:28,0,1.75,1.75,1,Horizontal,10,356,0.534,1,1,hour
18bc027a7a6fff87c682abee9e,7/24/2019 1:43,7/24/2019 3:28,0,1.75,1.75,1,Horizontal,6,357,0.556,1,1,hour
18bc027a7a6fff87c682abee9e,7/24/2019 1:43,7/24/2019 3:28,0,1.75,1.75,1,Vertical,0,358,2.158,1,1,hour
18bc027a7a6fff87c682abee9e,7/24/2019 1:43,7/24/2019 3:28,0,1.75,1.75,1,Vertical,10,359,0.695,1,1,hour
18bc027a7a6fff87c682abee9e,7/24/2019 1:43,7/24/2019 3:28,0,1.75,1.75,1,Vertical,10,360,0.83,1,1,hour
18bc027a7a6fff87c682abee9e,7/24/2019 1:43,7/24/2019 3:28,0,1.75,1.75,1,Horizontal,6,361,0.67,1,1,hour
18bc027a7a6fff87c682abee9e,7/24/2019 1:43,7/24/2019 3:28,0,1.75,1.75,1,Horizontal,-2,362,0.738,0,1,hour
18bc027a7a6fff87c682abee9e,7/24/2019 1:43,7/24/2019 3:28,0,1.75,1.75,1,Horizontal,4,363,0.538,1,1,hour
18bc027a7a6fff87c682abee9e,7/24/2019 1:43,7/24/2019 3:28,0,1.75,1.75,1,Vertical,0,364,3.884,1,1,hour
18bc027a7a6fff87c682abee9e,7/24/2019 1:43,7/24/2019 3:28,0,1.75,1.75,1,Vertical,6,365,0.834,1,1,hour
18bc027a7a6fff87c682abee9e,7/24/2019 1:43,7/24/2019 3:28,0,1.75,1.75,1,Vertical,-6,366,0.591,0,1,hour
18bc027a7a6fff87c682abee9e,7/24/2019 1:43,7/24/2019 3:28,0,1.75,1.75,1,Horizontal,0,367,3.529,1,1,hour
18bc027a7a6fff87c682abee9e,7/24/2019 1:43,7/24/2019 3:28,0,1.75,1.75,1,Horizontal,6,368,0.579,1,1,hour
18bc027a7a6fff87c682abee9e,7/24/2019 1:43,7/24/2019 3:28,0,1.75,1.75,1,Horizontal,6,369,0.568,1,1,hour
18bc027a7a6fff87c682abee9e,7/24/2019 1:43,7/24/2019 3:28,0,1.75,1.75,1,Vertical,-2,370,1.289,1,1,hour
18bc027a7a6fff87c682abee9e,7/24/2019 1:43,7/24/2019 3:28,0,1.75,1.75,1,Vertical,6,371,0.713,1,1,hour
18bc027a7a6fff87c682abee9e,7/24/2019 1:43,7/24/2019 3:28,0,1.75,1.75,1,Vertical,4,372,0.913,1,1,hour
18bc027a7a6fff87c682abee9e,7/24/2019 1:43,7/24/2019 3:28,0,1.75,1.75,1,Horizontal,0,373,6.297,0,1,hour
18bc027a7a6fff87c682abee9e,7/24/2019 1:43,7/24/2019 3:28,0,1.75,1.75,1,Horizontal,-2,374,0.843,0,1,hour
18bc027a7a6fff87c682abee9e,7/24/2019 1:43,7/24/2019 3:28,0,1.75,1.75,1,Horizontal,-4,375,0.644,0,1,hour
18bc027a7a6fff87c682abee9e,7/24/2019 1:43,7/24/2019 3:28,0,1.75,1.75,1,Vertical,0,376,0.94,1,1,hour
18bc027a7a6fff87c682abee9e,7/24/2019 1:43,7/24/2019 3:28,0,1.75,1.75,1,Vertical,2,377,0.84,1,1,hour
18bc027a7a6fff87c682abee9e,7/24/2019 1:43,7/24/2019 3:28,0,1.75,1.75,1,Vertical,10,378,0.554,1,1,hour
18bc027a7a6fff87c682abee9e,7/24/2019 1:43,7/24/2019 3:28,0,1.75,1.75,1,Horizontal,-6,379,0.874,0,1,hour
18bc027a7a6fff87c682abee9e,7/24/2019 1:43,7/24/2019 3:28,0,1.75,1.75,1,Horizontal,8,380,1.613,1,1,hour
18bc027a7a6fff87c682abee9e,7/24/2019 1:43,7/24/2019 3:28,0,1.75,1.75,1,Horizontal,4,381,0.531,1,1,hour
18bc027a7a6fff87c682abee9e,7/24/2019 1:43,7/24/2019 3:28,0,1.75,1.75,1,Vertical,0,382,1.243,0,1,hour
18bc027a7a6fff87c682abee9e,7/24/2019 1:43,7/24/2019 3:28,0,1.75,1.75,1,Vertical,-4,383,0.692,0,1,hour
18bc027a7a6fff87c682abee9e,7/24/2019 1:43,7/24/2019 3:28,0,1.75,1.75,1,Vertical,2,384,0.921,1,1,hour
18bc027a7a6fff87c682abee9e,7/24/2019 1:43,7/24/2019 3:28,0,1.75,1.75,1,Horizontal,0,385,5.401,1,1,hour
18bc027a7a6fff87c682abee9e,7/24/2019 1:43,7/24/2019 3:28,0,1.75,1.75,1,Horizontal,2,386,0.586,1,1,hour
18bc027a7a6fff87c682abee9e,7/24/2019 1:43,7/24/2019 3:28,0,1.75,1.75,1,Horizontal,2,387,1.829,1,1,hour
18bc027a7a6fff87c682abee9e,7/24/2019 1:43,7/24/2019 3:28,0,1.75,1.75,1,Vertical,-8,388,0.754,0,1,hour
18bc027a7a6fff87c682abee9e,7/24/2019 1:43,7/24/2019 3:28,0,1.75,1.75,1,Vertical,-10,389,0.694,0,1,hour
18bc027a7a6fff87c682abee9e,7/24/2019 1:43,7/24/2019 3:28,0,1.75,1.75,1,Vertical,-2,390,1.123,1,1,hour
18bc027a7a6fff87c682abee9e,7/24/2019 1:43,7/24/2019 3:28,0,1.75,1.75,1,Horizontal,-4,391,0.664,0,1,hour
18bc027a7a6fff87c682abee9e,7/24/2019 1:43,7/24/2019 3:28,0,1.75,1.75,1,Horizontal,-10,392,0.615,0,1,hour
18bc027a7a6fff87c682abee9e,7/24/2019 1:43,7/24/2019 3:28,0,1.75,1.75,1,Horizontal,2,393,0.696,1,1,hour
18bc027a7a6fff87c682abee9e,7/24/2019 1:43,7/24/2019 3:28,0,1.75,1.75,1,Vertical,0,394,1.581,1,1,hour
18bc027a7a6fff87c682abee9e,7/24/2019 1:43,7/24/2019 3:28,0,1.75,1.75,1,Vertical,-8,395,0.914,0,1,hour
18bc027a7a6fff87c682abee9e,7/24/2019 1:43,7/24/2019 3:28,0,1.75,1.75,1,Vertical,2,396,1.138,1,1,hour
18bc027a7a6fff87c682abee9e,7/24/2019 1:43,7/24/2019 3:28,0,1.75,1.75,1,Horizontal,0,397,1.616,1,1,hour
18bc027a7a6fff87c682abee9e,7/24/2019 1:43,7/24/2019 3:28,0,1.75,1.75,1,Horizontal,4,398,0.733,1,1,hour
18bc027a7a6fff87c682abee9e,7/24/2019 1:43,7/24/2019 3:28,0,1.75,1.75,1,Horizontal,-2,399,0.801,0,1,hour
18bc027a7a6fff87c682abee9e,7/24/2019 1:43,7/24/2019 3:28,0,1.75,1.75,1,Vertical,8,400,0.661,1,1,hour
18bc027a7a6fff87c682abee9e,7/24/2019 1:43,7/24/2019 3:28,0,1.75,1.75,1,Vertical,-6,401,0.855,0,1,hour
18bc027a7a6fff87c682abee9e,7/24/2019 1:43,7/24/2019 3:28,0,1.75,1.75,1,Vertical,-4,402,1.174,0,1,hour
18bc027a7a6fff87c682abee9e,7/24/2019 1:43,7/24/2019 3:28,0,1.75,1.75,1,Horizontal,2,403,0.693,1,1,hour
18bc027a7a6fff87c682abee9e,7/24/2019 1:43,7/24/2019 3:28,0,1.75,1.75,1,Horizontal,8,404,0.525,1,1,hour
18bc027a7a6fff87c682abee9e,7/24/2019 1:43,7/24/2019 3:28,0,1.75,1.75,1,Horizontal,-8,405,0.54,0,1,hour
18bc027a7a6fff87c682abee9e,7/24/2019 1:43,7/24/2019 3:28,0,1.75,1.75,1,Vertical,-10,406,0.621,0,1,hour
18bc027a7a6fff87c682abee9e,7/24/2019 1:43,7/24/2019 3:28,0,1.75,1.75,1,Vertical,10,407,0.648,1,1,hour
18bc027a7a6fff87c682abee9e,7/24/2019 1:43,7/24/2019 3:28,0,1.75,1.75,1,Vertical,-4,408,0.627,0,1,hour
18bc027a7a6fff87c682abee9e,7/24/2019 1:43,7/24/2019 3:28,0,1.75,1.75,1,Horizontal,8,409,0.562,1,1,hour
18bc027a7a6fff87c682abee9e,7/24/2019 1:43,7/24/2019 3:28,0,1.75,1.75,1,Horizontal,8,410,0.538,1,1,hour
18bc027a7a6fff87c682abee9e,7/24/2019 1:43,7/24/2019 3:28,0,1.75,1.75,1,Horizontal,-8,411,0.495,0,1,hour
18bc027a7a6fff87c682abee9e,7/24/2019 1:43,7/24/2019 3:28,0,1.75,1.75,1,Vertical,0,412,2.246,1,1,hour
18bc027a7a6fff87c682abee9e,7/24/2019 1:43,7/24/2019 3:28,0,1.75,1.75,1,Vertical,8,413,0.545,1,1,hour
18bc027a7a6fff87c682abee9e,7/24/2019 1:43,7/24/2019 3:28,0,1.75,1.75,1,Vertical,-2,414,0.821,0,1,hour
18bc027a7a6fff87c682abee9e,7/24/2019 1:43,7/24/2019 3:28,0,1.75,1.75,1,Horizontal,0,415,2.735,1,1,hour
18bc027a7a6fff87c682abee9e,7/24/2019 1:43,7/24/2019 3:28,0,1.75,1.75,1,Horizontal,-8,416,0.625,0,1,hour
18bc027a7a6fff87c682abee9e,7/24/2019 1:43,7/24/2019 3:28,0,1.75,1.75,1,Horizontal,-4,417,0.636,0,1,hour
18bc027a7a6fff87c682abee9e,7/24/2019 1:43,7/24/2019 3:28,0,1.75,1.75,1,Vertical,8,418,0.743,1,1,hour
18bc027a7a6fff87c682abee9e,7/24/2019 1:43,7/24/2019 3:28,0,1.75,1.75,1,Vertical,-8,419,0.59,0,1,hour
18bc027a7a6fff87c682abee9e,7/24/2019 1:43,7/24/2019 3:28,0,1.75,1.75,1,Vertical,2,420,1.234,1,1,hour
18bc027a7a6fff87c682abee9e,7/24/2019 1:43,7/24/2019 3:28,0,1.75,1.75,1,Horizontal,10,421,0.56,1,1,hour
18bc027a7a6fff87c682abee9e,7/24/2019 1:43,7/24/2019 3:28,0,1.75,1.75,1,Horizontal,-6,422,0.607,0,1,hour
18bc027a7a6fff87c682abee9e,7/24/2019 1:43,7/24/2019 3:28,0,1.75,1.75,1,Horizontal,4,423,0.587,1,1,hour
18bc027a7a6fff87c682abee9e,7/24/2019 1:43,7/24/2019 3:28,0,1.75,1.75,1,Vertical,-6,424,0.994,0,1,hour
18bc027a7a6fff87c682abee9e,7/24/2019 1:43,7/24/2019 3:28,0,1.75,1.75,1,Vertical,-6,425,0.987,0,1,hour
18bc027a7a6fff87c682abee9e,7/24/2019 1:43,7/24/2019 3:28,0,1.75,1.75,1,Vertical,-10,426,0.531,0,1,hour
18bc027a7a6fff87c682abee9e,7/24/2019 1:43,7/24/2019 3:28,0,1.75,1.75,1,Horizontal,8,427,0.56,1,1,hour
18bc027a7a6fff87c682abee9e,7/24/2019 1:43,7/24/2019 3:28,0,1.75,1.75,1,Horizontal,-6,428,0.534,0,1,hour
18bc027a7a6fff87c682abee9e,7/24/2019 1:43,7/24/2019 3:28,0,1.75,1.75,1,Horizontal,-6,429,0.56,0,1,hour
18bc027a7a6fff87c682abee9e,7/24/2019 1:43,7/24/2019 3:28,0,1.75,1.75,1,Vertical,0,430,2.758,1,1,hour
18bc027a7a6fff87c682abee9e,7/24/2019 1:43,7/24/2019 3:28,0,1.75,1.75,1,Vertical,6,431,0.694,1,1,hour
18bc027a7a6fff87c682abee9e,7/24/2019 1:43,7/24/2019 3:28,0,1.75,1.75,1,Vertical,10,432,0.668,1,1,hour
18bc027a7a6fff87c682abee9e,7/24/2019 1:43,7/24/2019 3:28,0,1.75,1.75,1,Horizontal,0,433,0.961,1,1,hour
18bc027a7a6fff87c682abee9e,7/24/2019 1:43,7/24/2019 3:28,0,1.75,1.75,1,Horizontal,6,434,0.602,1,1,hour
18bc027a7a6fff87c682abee9e,7/24/2019 1:43,7/24/2019 3:28,0,1.75,1.75,1,Horizontal,2,435,1.298,1,1,hour
18bc027a7a6fff87c682abee9e,7/24/2019 1:43,7/24/2019 3:28,0,1.75,1.75,1,Vertical,-8,436,0.826,0,1,hour
18bc027a7a6fff87c682abee9e,7/24/2019 1:43,7/24/2019 3:28,0,1.75,1.75,1,Vertical,-4,437,0.941,0,1,hour
18bc027a7a6fff87c682abee9e,7/24/2019 1:43,7/24/2019 3:28,0,1.75,1.75,1,Vertical,8,438,0.717,1,1,hour
18bc027a7a6fff87c682abee9e,7/24/2019 1:43,7/24/2019 3:28,0,1.75,1.75,1,Horizontal,0,439,1.619,1,1,hour
18bc027a7a6fff87c682abee9e,7/24/2019 1:43,7/24/2019 3:28,0,1.75,1.75,1,Horizontal,-10,440,0.586,0,1,hour
18bc027a7a6fff87c682abee9e,7/24/2019 1:43,7/24/2019 3:28,0,1.75,1.75,1,Horizontal,-8,441,0.556,0,1,hour
18bc027a7a6fff87c682abee9e,7/24/2019 1:43,7/24/2019 3:28,0,1.75,1.75,1,Vertical,-8,442,0.96,0,1,hour
18bc027a7a6fff87c682abee9e,7/24/2019 1:43,7/24/2019 3:28,0,1.75,1.75,1,Vertical,4,443,0.993,1,1,hour
18bc027a7a6fff87c682abee9e,7/24/2019 1:43,7/24/2019 3:28,0,1.75,1.75,1,Vertical,4,444,0.786,1,1,hour
18bc027a7a6fff87c682abee9e,7/24/2019 1:43,7/24/2019 3:28,0,1.75,1.75,1,Horizontal,0,445,5.353,0,1,hour
18bc027a7a6fff87c682abee9e,7/24/2019 1:43,7/24/2019 3:28,0,1.75,1.75,1,Horizontal,10,446,0.569,1,1,hour
18bc027a7a6fff87c682abee9e,7/24/2019 1:43,7/24/2019 3:28,0,1.75,1.75,1,Horizontal,-2,447,0.989,0,1,hour
18bc027a7a6fff87c682abee9e,7/24/2019 1:43,7/24/2019 3:28,0,1.75,1.75,1,Vertical,0,448,1.291,0,1,hour
18bc027a7a6fff87c682abee9e,7/24/2019 1:43,7/24/2019 3:28,0,1.75,1.75,1,Vertical,4,449,0.835,1,1,hour
18bc027a7a6fff87c682abee9e,7/24/2019 1:43,7/24/2019 3:28,0,1.75,1.75,1,Vertical,8,450,0.626,1,1,hour
18bc027a7a6fff87c682abee9e,7/24/2019 1:43,7/24/2019 3:28,0,1.75,1.75,1,Horizontal,6,451,0.615,1,1,hour
18bc027a7a6fff87c682abee9e,7/24/2019 1:43,7/24/2019 3:28,0,1.75,1.75,1,Horizontal,-8,452,0.594,0,1,hour
18bc027a7a6fff87c682abee9e,7/24/2019 1:43,7/24/2019 3:28,0,1.75,1.75,1,Horizontal,-10,453,0.569,0,1,hour
18bc027a7a6fff87c682abee9e,7/24/2019 1:43,7/24/2019 3:28,0,1.75,1.75,1,Vertical,0,454,1.016,0,1,hour
18bc027a7a6fff87c682abee9e,7/24/2019 1:43,7/24/2019 3:28,0,1.75,1.75,1,Vertical,10,455,0.568,1,1,hour
18bc027a7a6fff87c682abee9e,7/24/2019 1:43,7/24/2019 3:28,0,1.75,1.75,1,Vertical,4,456,0.838,1,1,hour
18bc027a7a6fff87c682abee9e,7/24/2019 1:43,7/24/2019 3:28,0,1.75,1.75,1,Horizontal,0,457,1.645,1,1,hour
18bc027a7a6fff87c682abee9e,7/24/2019 1:43,7/24/2019 3:28,0,1.75,1.75,1,Horizontal,-4,458,0.633,0,1,hour
18bc027a7a6fff87c682abee9e,7/24/2019 1:43,7/24/2019 3:28,0,1.75,1.75,1,Horizontal,10,459,0.511,1,1,hour
