ID,endDate,startDate,didSess3,hourDiff21,hourDiffPrev,session,task,dev,trialNum,rt,response,subj_idx,timeCondition
05fb1d1f12a54ed2232e95d453,8/20/2019 0:08,9/16/2019 0:47,0,648.65,648.65,1,Horizontal,10,1,1.614,1,0,month
05fb1d1f12a54ed2232e95d453,8/20/2019 0:08,9/16/2019 0:47,0,648.65,648.65,1,Horizontal,-6,2,0.333,0,0,month
05fb1d1f12a54ed2232e95d453,8/20/2019 0:08,9/16/2019 0:47,0,648.65,648.65,1,Horizontal,-10,3,0.458,0,0,month
05fb1d1f12a54ed2232e95d453,8/20/2019 0:08,9/16/2019 0:47,0,648.65,648.65,1,Vertical,-4,4,1.073,0,0,month
05fb1d1f12a54ed2232e95d453,8/20/2019 0:08,9/16/2019 0:47,0,648.65,648.65,1,Vertical,10,5,2.171,1,0,month
05fb1d1f12a54ed2232e95d453,8/20/2019 0:08,9/16/2019 0:47,0,648.65,648.65,1,Vertical,-10,6,0.932,0,0,month
05fb1d1f12a54ed2232e95d453,8/20/2019 0:08,9/16/2019 0:47,0,648.65,648.65,1,Horizontal,0,7,1.615,1,0,month
05fb1d1f12a54ed2232e95d453,8/20/2019 0:08,9/16/2019 0:47,0,648.65,648.65,1,Horizontal,-4,8,1.391,0,0,month
05fb1d1f12a54ed2232e95d453,8/20/2019 0:08,9/16/2019 0:47,0,648.65,648.65,1,Horizontal,-2,9,1.592,0,0,month
05fb1d1f12a54ed2232e95d453,8/20/2019 0:08,9/16/2019 0:47,0,648.65,648.65,1,Vertical,2,10,3.75,0,0,month
05fb1d1f12a54ed2232e95d453,8/20/2019 0:08,9/16/2019 0:47,0,648.65,648.65,1,Vertical,-4,11,1.543,0,0,month
05fb1d1f12a54ed2232e95d453,8/20/2019 0:08,9/16/2019 0:47,0,648.65,648.65,1,Vertical,6,12,1.304,1,0,month
05fb1d1f12a54ed2232e95d453,8/20/2019 0:08,9/16/2019 0:47,0,648.65,648.65,1,Horizontal,0,13,2.688,1,0,month
05fb1d1f12a54ed2232e95d453,8/20/2019 0:08,9/16/2019 0:47,0,648.65,648.65,1,Horizontal,-2,14,0.849,0,0,month
05fb1d1f12a54ed2232e95d453,8/20/2019 0:08,9/16/2019 0:47,0,648.65,648.65,1,Horizontal,10,15,0.667,1,0,month
05fb1d1f12a54ed2232e95d453,8/20/2019 0:08,9/16/2019 0:47,0,648.65,648.65,1,Vertical,0,16,2.311,0,0,month
05fb1d1f12a54ed2232e95d453,8/20/2019 0:08,9/16/2019 0:47,0,648.65,648.65,1,Vertical,2,17,1.288,1,0,month
05fb1d1f12a54ed2232e95d453,8/20/2019 0:08,9/16/2019 0:47,0,648.65,648.65,1,Vertical,-10,18,1.125,0,0,month
05fb1d1f12a54ed2232e95d453,8/20/2019 0:08,9/16/2019 0:47,0,648.65,648.65,1,Horizontal,4,19,1.114,1,0,month
05fb1d1f12a54ed2232e95d453,8/20/2019 0:08,9/16/2019 0:47,0,648.65,648.65,1,Horizontal,-8,20,1.089,0,0,month
05fb1d1f12a54ed2232e95d453,8/20/2019 0:08,9/16/2019 0:47,0,648.65,648.65,1,Horizontal,4,21,1.167,1,0,month
05fb1d1f12a54ed2232e95d453,8/20/2019 0:08,9/16/2019 0:47,0,648.65,648.65,1,Vertical,6,22,0.752,1,0,month
05fb1d1f12a54ed2232e95d453,8/20/2019 0:08,9/16/2019 0:47,0,648.65,648.65,1,Vertical,10,23,0.945,1,0,month
05fb1d1f12a54ed2232e95d453,8/20/2019 0:08,9/16/2019 0:47,0,648.65,648.65,1,Vertical,-2,24,1.231,0,0,month
05fb1d1f12a54ed2232e95d453,8/20/2019 0:08,9/16/2019 0:47,0,648.65,648.65,1,Horizontal,0,25,1.435,1,0,month
05fb1d1f12a54ed2232e95d453,8/20/2019 0:08,9/16/2019 0:47,0,648.65,648.65,1,Horizontal,4,26,0.982,1,0,month
05fb1d1f12a54ed2232e95d453,8/20/2019 0:08,9/16/2019 0:47,0,648.65,648.65,1,Horizontal,-4,27,0.943,0,0,month
05fb1d1f12a54ed2232e95d453,8/20/2019 0:08,9/16/2019 0:47,0,648.65,648.65,1,Vertical,0,28,3.597,1,0,month
05fb1d1f12a54ed2232e95d453,8/20/2019 0:08,9/16/2019 0:47,0,648.65,648.65,1,Vertical,-2,29,1.152,0,0,month
05fb1d1f12a54ed2232e95d453,8/20/2019 0:08,9/16/2019 0:47,0,648.65,648.65,1,Vertical,4,30,2.099,1,0,month
05fb1d1f12a54ed2232e95d453,8/20/2019 0:08,9/16/2019 0:47,0,648.65,648.65,1,Horizontal,-8,31,0.795,0,0,month
05fb1d1f12a54ed2232e95d453,8/20/2019 0:08,9/16/2019 0:47,0,648.65,648.65,1,Horizontal,-8,32,0.849,0,0,month
05fb1d1f12a54ed2232e95d453,8/20/2019 0:08,9/16/2019 0:47,0,648.65,648.65,1,Horizontal,6,33,0.75,1,0,month
05fb1d1f12a54ed2232e95d453,8/20/2019 0:08,9/16/2019 0:47,0,648.65,648.65,1,Vertical,-10,34,0.841,0,0,month
05fb1d1f12a54ed2232e95d453,8/20/2019 0:08,9/16/2019 0:47,0,648.65,648.65,1,Vertical,2,35,1.022,1,0,month
05fb1d1f12a54ed2232e95d453,8/20/2019 0:08,9/16/2019 0:47,0,648.65,648.65,1,Vertical,-2,36,0.749,1,0,month
05fb1d1f12a54ed2232e95d453,8/20/2019 0:08,9/16/2019 0:47,0,648.65,648.65,1,Horizontal,0,37,1.862,1,0,month
05fb1d1f12a54ed2232e95d453,8/20/2019 0:08,9/16/2019 0:47,0,648.65,648.65,1,Horizontal,-4,38,1.299,0,0,month
05fb1d1f12a54ed2232e95d453,8/20/2019 0:08,9/16/2019 0:47,0,648.65,648.65,1,Horizontal,-6,39,0.602,0,0,month
05fb1d1f12a54ed2232e95d453,8/20/2019 0:08,9/16/2019 0:47,0,648.65,648.65,1,Vertical,0,40,0.853,0,0,month
05fb1d1f12a54ed2232e95d453,8/20/2019 0:08,9/16/2019 0:47,0,648.65,648.65,1,Vertical,10,41,0.662,1,0,month
05fb1d1f12a54ed2232e95d453,8/20/2019 0:08,9/16/2019 0:47,0,648.65,648.65,1,Vertical,-4,42,0.987,0,0,month
05fb1d1f12a54ed2232e95d453,8/20/2019 0:08,9/16/2019 0:47,0,648.65,648.65,1,Horizontal,4,43,0.599,1,0,month
05fb1d1f12a54ed2232e95d453,8/20/2019 0:08,9/16/2019 0:47,0,648.65,648.65,1,Horizontal,6,44,0.649,1,0,month
05fb1d1f12a54ed2232e95d453,8/20/2019 0:08,9/16/2019 0:47,0,648.65,648.65,1,Horizontal,10,45,0.493,1,0,month
05fb1d1f12a54ed2232e95d453,8/20/2019 0:08,9/16/2019 0:47,0,648.65,648.65,1,Vertical,0,46,0.888,0,0,month
05fb1d1f12a54ed2232e95d453,8/20/2019 0:08,9/16/2019 0:47,0,648.65,648.65,1,Vertical,-8,47,0.522,0,0,month
05fb1d1f12a54ed2232e95d453,8/20/2019 0:08,9/16/2019 0:47,0,648.65,648.65,1,Vertical,8,48,1.024,1,0,month
05fb1d1f12a54ed2232e95d453,8/20/2019 0:08,9/16/2019 0:47,0,648.65,648.65,1,Horizontal,0,49,1.284,1,0,month
05fb1d1f12a54ed2232e95d453,8/20/2019 0:08,9/16/2019 0:47,0,648.65,648.65,1,Horizontal,2,50,1.187,1,0,month
05fb1d1f12a54ed2232e95d453,8/20/2019 0:08,9/16/2019 0:47,0,648.65,648.65,1,Horizontal,-2,51,1.804,0,0,month
05fb1d1f12a54ed2232e95d453,8/20/2019 0:08,9/16/2019 0:47,0,648.65,648.65,1,Vertical,4,52,0.552,0,0,month
05fb1d1f12a54ed2232e95d453,8/20/2019 0:08,9/16/2019 0:47,0,648.65,648.65,1,Vertical,-6,53,0.64,0,0,month
05fb1d1f12a54ed2232e95d453,8/20/2019 0:08,9/16/2019 0:47,0,648.65,648.65,1,Vertical,4,54,1.369,1,0,month
05fb1d1f12a54ed2232e95d453,8/20/2019 0:08,9/16/2019 0:47,0,648.65,648.65,1,Horizontal,-2,55,2.076,0,0,month
05fb1d1f12a54ed2232e95d453,8/20/2019 0:08,9/16/2019 0:47,0,648.65,648.65,1,Horizontal,-8,56,0.687,0,0,month
05fb1d1f12a54ed2232e95d453,8/20/2019 0:08,9/16/2019 0:47,0,648.65,648.65,1,Horizontal,2,57,0.53,1,0,month
05fb1d1f12a54ed2232e95d453,8/20/2019 0:08,9/16/2019 0:47,0,648.65,648.65,1,Vertical,0,58,2.107,1,0,month
05fb1d1f12a54ed2232e95d453,8/20/2019 0:08,9/16/2019 0:47,0,648.65,648.65,1,Vertical,4,59,2.116,1,0,month
05fb1d1f12a54ed2232e95d453,8/20/2019 0:08,9/16/2019 0:47,0,648.65,648.65,1,Vertical,6,60,0.648,0,0,month
05fb1d1f12a54ed2232e95d453,8/20/2019 0:08,9/16/2019 0:47,0,648.65,648.65,1,Horizontal,0,61,0.981,0,0,month
05fb1d1f12a54ed2232e95d453,8/20/2019 0:08,9/16/2019 0:47,0,648.65,648.65,1,Horizontal,6,62,0.61,1,0,month
05fb1d1f12a54ed2232e95d453,8/20/2019 0:08,9/16/2019 0:47,0,648.65,648.65,1,Horizontal,8,63,0.517,1,0,month
05fb1d1f12a54ed2232e95d453,8/20/2019 0:08,9/16/2019 0:47,0,648.65,648.65,1,Vertical,0,64,2.175,1,0,month
05fb1d1f12a54ed2232e95d453,8/20/2019 0:08,9/16/2019 0:47,0,648.65,648.65,1,Vertical,8,65,0.895,1,0,month
05fb1d1f12a54ed2232e95d453,8/20/2019 0:08,9/16/2019 0:47,0,648.65,648.65,1,Vertical,8,66,0.831,1,0,month
05fb1d1f12a54ed2232e95d453,8/20/2019 0:08,9/16/2019 0:47,0,648.65,648.65,1,Horizontal,0,67,5.16,1,0,month
05fb1d1f12a54ed2232e95d453,8/20/2019 0:08,9/16/2019 0:47,0,648.65,648.65,1,Horizontal,-10,68,0.554,0,0,month
05fb1d1f12a54ed2232e95d453,8/20/2019 0:08,9/16/2019 0:47,0,648.65,648.65,1,Horizontal,10,69,0.531,1,0,month
05fb1d1f12a54ed2232e95d453,8/20/2019 0:08,9/16/2019 0:47,0,648.65,648.65,1,Vertical,-6,70,0.924,0,0,month
05fb1d1f12a54ed2232e95d453,8/20/2019 0:08,9/16/2019 0:47,0,648.65,648.65,1,Vertical,-8,71,0.567,0,0,month
05fb1d1f12a54ed2232e95d453,8/20/2019 0:08,9/16/2019 0:47,0,648.65,648.65,1,Vertical,-2,72,1.044,1,0,month
05fb1d1f12a54ed2232e95d453,8/20/2019 0:08,9/16/2019 0:47,0,648.65,648.65,1,Horizontal,8,73,0.551,1,0,month
05fb1d1f12a54ed2232e95d453,8/20/2019 0:08,9/16/2019 0:47,0,648.65,648.65,1,Horizontal,-8,74,0.472,0,0,month
05fb1d1f12a54ed2232e95d453,8/20/2019 0:08,9/16/2019 0:47,0,648.65,648.65,1,Horizontal,-2,75,1.1,1,0,month
05fb1d1f12a54ed2232e95d453,8/20/2019 0:08,9/16/2019 0:47,0,648.65,648.65,1,Vertical,0,76,0.636,1,0,month
05fb1d1f12a54ed2232e95d453,8/20/2019 0:08,9/16/2019 0:47,0,648.65,648.65,1,Vertical,8,77,0.633,1,0,month
05fb1d1f12a54ed2232e95d453,8/20/2019 0:08,9/16/2019 0:47,0,648.65,648.65,1,Vertical,-8,78,0.617,0,0,month
05fb1d1f12a54ed2232e95d453,8/20/2019 0:08,9/16/2019 0:47,0,648.65,648.65,1,Horizontal,-6,79,0.829,0,0,month
05fb1d1f12a54ed2232e95d453,8/20/2019 0:08,9/16/2019 0:47,0,648.65,648.65,1,Horizontal,2,80,1.18,1,0,month
05fb1d1f12a54ed2232e95d453,8/20/2019 0:08,9/16/2019 0:47,0,648.65,648.65,1,Horizontal,6,81,0.639,1,0,month
05fb1d1f12a54ed2232e95d453,8/20/2019 0:08,9/16/2019 0:47,0,648.65,648.65,1,Vertical,-10,82,0.827,0,0,month
05fb1d1f12a54ed2232e95d453,8/20/2019 0:08,9/16/2019 0:47,0,648.65,648.65,1,Vertical,2,83,1.169,1,0,month
05fb1d1f12a54ed2232e95d453,8/20/2019 0:08,9/16/2019 0:47,0,648.65,648.65,1,Vertical,2,84,3.335,1,0,month
05fb1d1f12a54ed2232e95d453,8/20/2019 0:08,9/16/2019 0:47,0,648.65,648.65,1,Horizontal,0,85,4.16,1,0,month
05fb1d1f12a54ed2232e95d453,8/20/2019 0:08,9/16/2019 0:47,0,648.65,648.65,1,Horizontal,8,86,0.69,1,0,month
05fb1d1f12a54ed2232e95d453,8/20/2019 0:08,9/16/2019 0:47,0,648.65,648.65,1,Horizontal,-4,87,0.876,0,0,month
05fb1d1f12a54ed2232e95d453,8/20/2019 0:08,9/16/2019 0:47,0,648.65,648.65,1,Vertical,0,88,4.229,0,0,month
05fb1d1f12a54ed2232e95d453,8/20/2019 0:08,9/16/2019 0:47,0,648.65,648.65,1,Vertical,6,89,0.899,1,0,month
05fb1d1f12a54ed2232e95d453,8/20/2019 0:08,9/16/2019 0:47,0,648.65,648.65,1,Vertical,6,90,0.722,1,0,month
05fb1d1f12a54ed2232e95d453,8/20/2019 0:08,9/16/2019 0:47,0,648.65,648.65,1,Horizontal,0,91,1.296,0,0,month
05fb1d1f12a54ed2232e95d453,8/20/2019 0:08,9/16/2019 0:47,0,648.65,648.65,1,Horizontal,-6,92,0.985,0,0,month
05fb1d1f12a54ed2232e95d453,8/20/2019 0:08,9/16/2019 0:47,0,648.65,648.65,1,Horizontal,8,93,0.523,1,0,month
05fb1d1f12a54ed2232e95d453,8/20/2019 0:08,9/16/2019 0:47,0,648.65,648.65,1,Vertical,-6,94,0.757,0,0,month
05fb1d1f12a54ed2232e95d453,8/20/2019 0:08,9/16/2019 0:47,0,648.65,648.65,1,Vertical,-10,95,0.546,0,0,month
05fb1d1f12a54ed2232e95d453,8/20/2019 0:08,9/16/2019 0:47,0,648.65,648.65,1,Vertical,-8,96,1.176,0,0,month
05fb1d1f12a54ed2232e95d453,8/20/2019 0:08,9/16/2019 0:47,0,648.65,648.65,1,Horizontal,-4,97,1.429,0,0,month
05fb1d1f12a54ed2232e95d453,8/20/2019 0:08,9/16/2019 0:47,0,648.65,648.65,1,Horizontal,-10,98,0.615,0,0,month
05fb1d1f12a54ed2232e95d453,8/20/2019 0:08,9/16/2019 0:47,0,648.65,648.65,1,Horizontal,2,99,0.82,1,0,month
05fb1d1f12a54ed2232e95d453,8/20/2019 0:08,9/16/2019 0:47,0,648.65,648.65,1,Vertical,0,100,1.781,1,0,month
05fb1d1f12a54ed2232e95d453,8/20/2019 0:08,9/16/2019 0:47,0,648.65,648.65,1,Vertical,-4,101,0.873,0,0,month
05fb1d1f12a54ed2232e95d453,8/20/2019 0:08,9/16/2019 0:47,0,648.65,648.65,1,Vertical,-4,102,0.839,0,0,month
05fb1d1f12a54ed2232e95d453,8/20/2019 0:08,9/16/2019 0:47,0,648.65,648.65,1,Horizontal,4,103,1.293,1,0,month
05fb1d1f12a54ed2232e95d453,8/20/2019 0:08,9/16/2019 0:47,0,648.65,648.65,1,Horizontal,-6,104,0.496,0,0,month
05fb1d1f12a54ed2232e95d453,8/20/2019 0:08,9/16/2019 0:47,0,648.65,648.65,1,Horizontal,-10,105,0.527,0,0,month
05fb1d1f12a54ed2232e95d453,8/20/2019 0:08,9/16/2019 0:47,0,648.65,648.65,1,Vertical,-6,106,1.215,0,0,month
05fb1d1f12a54ed2232e95d453,8/20/2019 0:08,9/16/2019 0:47,0,648.65,648.65,1,Vertical,8,107,0.592,1,0,month
05fb1d1f12a54ed2232e95d453,8/20/2019 0:08,9/16/2019 0:47,0,648.65,648.65,1,Vertical,4,108,2.209,1,0,month
05fb1d1f12a54ed2232e95d453,8/20/2019 0:08,9/16/2019 0:47,0,648.65,648.65,1,Horizontal,2,109,0.639,1,0,month
05fb1d1f12a54ed2232e95d453,8/20/2019 0:08,9/16/2019 0:47,0,648.65,648.65,1,Horizontal,8,110,0.57,1,0,month
05fb1d1f12a54ed2232e95d453,8/20/2019 0:08,9/16/2019 0:47,0,648.65,648.65,1,Horizontal,-10,111,0.487,0,0,month
05fb1d1f12a54ed2232e95d453,8/20/2019 0:08,9/16/2019 0:47,0,648.65,648.65,1,Vertical,-8,112,0.665,0,0,month
05fb1d1f12a54ed2232e95d453,8/20/2019 0:08,9/16/2019 0:47,0,648.65,648.65,1,Vertical,-2,113,0.733,0,0,month
05fb1d1f12a54ed2232e95d453,8/20/2019 0:08,9/16/2019 0:47,0,648.65,648.65,1,Vertical,-6,114,2.801,0,0,month
05fb1d1f12a54ed2232e95d453,8/20/2019 0:08,9/16/2019 0:47,0,648.65,648.65,1,Horizontal,0,115,4.89,1,0,month
05fb1d1f12a54ed2232e95d453,8/20/2019 0:08,9/16/2019 0:47,0,648.65,648.65,1,Horizontal,10,116,0.541,1,0,month
05fb1d1f12a54ed2232e95d453,8/20/2019 0:08,9/16/2019 0:47,0,648.65,648.65,1,Horizontal,6,117,1.035,1,0,month
05fb1d1f12a54ed2232e95d453,8/20/2019 0:08,9/16/2019 0:47,0,648.65,648.65,1,Vertical,0,118,3.086,1,0,month
05fb1d1f12a54ed2232e95d453,8/20/2019 0:08,9/16/2019 0:47,0,648.65,648.65,1,Vertical,10,119,1.144,1,0,month
05fb1d1f12a54ed2232e95d453,8/20/2019 0:08,9/16/2019 0:47,0,648.65,648.65,1,Vertical,10,120,0.905,1,0,month
05fb1d1f12a54ed2232e95d453,8/20/2019 0:08,9/16/2019 0:47,0,648.65,648.65,1,Horizontal,6,121,1.158,1,0,month
05fb1d1f12a54ed2232e95d453,8/20/2019 0:08,9/16/2019 0:47,0,648.65,648.65,1,Horizontal,-2,122,0.559,0,0,month
05fb1d1f12a54ed2232e95d453,8/20/2019 0:08,9/16/2019 0:47,0,648.65,648.65,1,Horizontal,4,123,0.436,1,0,month
05fb1d1f12a54ed2232e95d453,8/20/2019 0:08,9/16/2019 0:47,0,648.65,648.65,1,Vertical,0,124,3.853,0,0,month
05fb1d1f12a54ed2232e95d453,8/20/2019 0:08,9/16/2019 0:47,0,648.65,648.65,1,Vertical,6,125,0.617,1,0,month
05fb1d1f12a54ed2232e95d453,8/20/2019 0:08,9/16/2019 0:47,0,648.65,648.65,1,Vertical,-6,126,0.766,0,0,month
05fb1d1f12a54ed2232e95d453,8/20/2019 0:08,9/16/2019 0:47,0,648.65,648.65,1,Horizontal,0,127,1.141,1,0,month
05fb1d1f12a54ed2232e95d453,8/20/2019 0:08,9/16/2019 0:47,0,648.65,648.65,1,Horizontal,6,128,0.575,1,0,month
05fb1d1f12a54ed2232e95d453,8/20/2019 0:08,9/16/2019 0:47,0,648.65,648.65,1,Horizontal,6,129,0.677,1,0,month
05fb1d1f12a54ed2232e95d453,8/20/2019 0:08,9/16/2019 0:47,0,648.65,648.65,1,Vertical,-2,130,2.565,0,0,month
05fb1d1f12a54ed2232e95d453,8/20/2019 0:08,9/16/2019 0:47,0,648.65,648.65,1,Vertical,6,131,0.949,1,0,month
05fb1d1f12a54ed2232e95d453,8/20/2019 0:08,9/16/2019 0:47,0,648.65,648.65,1,Vertical,4,132,3.919,1,0,month
05fb1d1f12a54ed2232e95d453,8/20/2019 0:08,9/16/2019 0:47,0,648.65,648.65,1,Horizontal,0,133,1.409,0,0,month
05fb1d1f12a54ed2232e95d453,8/20/2019 0:08,9/16/2019 0:47,0,648.65,648.65,1,Horizontal,-2,134,4.905,0,0,month
05fb1d1f12a54ed2232e95d453,8/20/2019 0:08,9/16/2019 0:47,0,648.65,648.65,1,Horizontal,-4,135,0.797,0,0,month
05fb1d1f12a54ed2232e95d453,8/20/2019 0:08,9/16/2019 0:47,0,648.65,648.65,1,Vertical,0,136,0.919,1,0,month
05fb1d1f12a54ed2232e95d453,8/20/2019 0:08,9/16/2019 0:47,0,648.65,648.65,1,Vertical,2,137,0.725,0,0,month
05fb1d1f12a54ed2232e95d453,8/20/2019 0:08,9/16/2019 0:47,0,648.65,648.65,1,Vertical,10,138,0.524,1,0,month
05fb1d1f12a54ed2232e95d453,8/20/2019 0:08,9/16/2019 0:47,0,648.65,648.65,1,Horizontal,-6,139,0.629,0,0,month
05fb1d1f12a54ed2232e95d453,8/20/2019 0:08,9/16/2019 0:47,0,648.65,648.65,1,Horizontal,8,140,0.697,1,0,month
05fb1d1f12a54ed2232e95d453,8/20/2019 0:08,9/16/2019 0:47,0,648.65,648.65,1,Horizontal,4,141,1.21,1,0,month
05fb1d1f12a54ed2232e95d453,8/20/2019 0:08,9/16/2019 0:47,0,648.65,648.65,1,Vertical,0,142,2.335,0,0,month
05fb1d1f12a54ed2232e95d453,8/20/2019 0:08,9/16/2019 0:47,0,648.65,648.65,1,Vertical,-4,143,0.79,0,0,month
05fb1d1f12a54ed2232e95d453,8/20/2019 0:08,9/16/2019 0:47,0,648.65,648.65,1,Vertical,2,144,0.96,1,0,month
05fb1d1f12a54ed2232e95d453,8/20/2019 0:08,9/16/2019 0:47,0,648.65,648.65,1,Horizontal,0,145,1.804,1,0,month
05fb1d1f12a54ed2232e95d453,8/20/2019 0:08,9/16/2019 0:47,0,648.65,648.65,1,Horizontal,2,146,1.3,1,0,month
05fb1d1f12a54ed2232e95d453,8/20/2019 0:08,9/16/2019 0:47,0,648.65,648.65,1,Horizontal,2,147,1.015,1,0,month
05fb1d1f12a54ed2232e95d453,8/20/2019 0:08,9/16/2019 0:47,0,648.65,648.65,1,Vertical,-8,148,0.703,0,0,month
05fb1d1f12a54ed2232e95d453,8/20/2019 0:08,9/16/2019 0:47,0,648.65,648.65,1,Vertical,-10,149,0.629,0,0,month
05fb1d1f12a54ed2232e95d453,8/20/2019 0:08,9/16/2019 0:47,0,648.65,648.65,1,Vertical,-2,150,1.36,0,0,month
05fb1d1f12a54ed2232e95d453,8/20/2019 0:08,9/16/2019 0:47,0,648.65,648.65,1,Horizontal,-4,151,1.209,0,0,month
05fb1d1f12a54ed2232e95d453,8/20/2019 0:08,9/16/2019 0:47,0,648.65,648.65,1,Horizontal,-10,152,0.637,0,0,month
05fb1d1f12a54ed2232e95d453,8/20/2019 0:08,9/16/2019 0:47,0,648.65,648.65,1,Horizontal,2,153,1.396,1,0,month
05fb1d1f12a54ed2232e95d453,8/20/2019 0:08,9/16/2019 0:47,0,648.65,648.65,1,Vertical,0,154,2.194,0,0,month
05fb1d1f12a54ed2232e95d453,8/20/2019 0:08,9/16/2019 0:47,0,648.65,648.65,1,Vertical,-8,155,0.584,0,0,month
05fb1d1f12a54ed2232e95d453,8/20/2019 0:08,9/16/2019 0:47,0,648.65,648.65,1,Vertical,2,156,1.098,1,0,month
05fb1d1f12a54ed2232e95d453,8/20/2019 0:08,9/16/2019 0:47,0,648.65,648.65,1,Horizontal,0,157,0.725,1,0,month
05fb1d1f12a54ed2232e95d453,8/20/2019 0:08,9/16/2019 0:47,0,648.65,648.65,1,Horizontal,4,158,1.163,1,0,month
05fb1d1f12a54ed2232e95d453,8/20/2019 0:08,9/16/2019 0:47,0,648.65,648.65,1,Horizontal,-2,159,2.977,0,0,month
05fb1d1f12a54ed2232e95d453,8/20/2019 0:08,9/16/2019 0:47,0,648.65,648.65,1,Vertical,8,160,1.786,1,0,month
05fb1d1f12a54ed2232e95d453,8/20/2019 0:08,9/16/2019 0:47,0,648.65,648.65,1,Vertical,-6,161,0.953,0,0,month
05fb1d1f12a54ed2232e95d453,8/20/2019 0:08,9/16/2019 0:47,0,648.65,648.65,1,Vertical,-4,162,0.591,0,0,month
05fb1d1f12a54ed2232e95d453,8/20/2019 0:08,9/16/2019 0:47,0,648.65,648.65,1,Horizontal,2,163,1.062,1,0,month
05fb1d1f12a54ed2232e95d453,8/20/2019 0:08,9/16/2019 0:47,0,648.65,648.65,1,Horizontal,8,164,1.194,1,0,month
05fb1d1f12a54ed2232e95d453,8/20/2019 0:08,9/16/2019 0:47,0,648.65,648.65,1,Horizontal,-8,165,1.519,0,0,month
05fb1d1f12a54ed2232e95d453,8/20/2019 0:08,9/16/2019 0:47,0,648.65,648.65,1,Vertical,-10,166,1.958,0,0,month
05fb1d1f12a54ed2232e95d453,8/20/2019 0:08,9/16/2019 0:47,0,648.65,648.65,1,Vertical,10,167,1.101,1,0,month
05fb1d1f12a54ed2232e95d453,8/20/2019 0:08,9/16/2019 0:47,0,648.65,648.65,1,Vertical,-4,168,0.942,0,0,month
05fb1d1f12a54ed2232e95d453,8/20/2019 0:08,9/16/2019 0:47,0,648.65,648.65,1,Horizontal,8,169,0.487,1,0,month
05fb1d1f12a54ed2232e95d453,8/20/2019 0:08,9/16/2019 0:47,0,648.65,648.65,1,Horizontal,8,170,0.539,1,0,month
05fb1d1f12a54ed2232e95d453,8/20/2019 0:08,9/16/2019 0:47,0,648.65,648.65,1,Horizontal,-8,171,0.576,0,0,month
05fb1d1f12a54ed2232e95d453,8/20/2019 0:08,9/16/2019 0:47,0,648.65,648.65,1,Vertical,0,172,1.281,0,0,month
05fb1d1f12a54ed2232e95d453,8/20/2019 0:08,9/16/2019 0:47,0,648.65,648.65,1,Vertical,8,173,1.496,1,0,month
05fb1d1f12a54ed2232e95d453,8/20/2019 0:08,9/16/2019 0:47,0,648.65,648.65,1,Vertical,-2,174,3.022,0,0,month
05fb1d1f12a54ed2232e95d453,8/20/2019 0:08,9/16/2019 0:47,0,648.65,648.65,1,Horizontal,0,175,1.199,1,0,month
05fb1d1f12a54ed2232e95d453,8/20/2019 0:08,9/16/2019 0:47,0,648.65,648.65,1,Horizontal,-8,176,0.558,0,0,month
05fb1d1f12a54ed2232e95d453,8/20/2019 0:08,9/16/2019 0:47,0,648.65,648.65,1,Horizontal,-4,177,0.921,0,0,month
05fb1d1f12a54ed2232e95d453,8/20/2019 0:08,9/16/2019 0:47,0,648.65,648.65,1,Vertical,8,178,1.011,1,0,month
05fb1d1f12a54ed2232e95d453,8/20/2019 0:08,9/16/2019 0:47,0,648.65,648.65,1,Vertical,-8,179,0.515,0,0,month
05fb1d1f12a54ed2232e95d453,8/20/2019 0:08,9/16/2019 0:47,0,648.65,648.65,1,Vertical,2,180,1.106,1,0,month
05fb1d1f12a54ed2232e95d453,8/20/2019 0:08,9/16/2019 0:47,0,648.65,648.65,1,Horizontal,10,181,0.548,1,0,month
05fb1d1f12a54ed2232e95d453,8/20/2019 0:08,9/16/2019 0:47,0,648.65,648.65,1,Horizontal,-6,182,0.887,0,0,month
05fb1d1f12a54ed2232e95d453,8/20/2019 0:08,9/16/2019 0:47,0,648.65,648.65,1,Horizontal,4,183,0.57,1,0,month
05fb1d1f12a54ed2232e95d453,8/20/2019 0:08,9/16/2019 0:47,0,648.65,648.65,1,Vertical,-6,184,0.76,0,0,month
05fb1d1f12a54ed2232e95d453,8/20/2019 0:08,9/16/2019 0:47,0,648.65,648.65,1,Vertical,-6,185,0.953,0,0,month
05fb1d1f12a54ed2232e95d453,8/20/2019 0:08,9/16/2019 0:47,0,648.65,648.65,1,Vertical,-10,186,0.658,0,0,month
05fb1d1f12a54ed2232e95d453,8/20/2019 0:08,9/16/2019 0:47,0,648.65,648.65,1,Horizontal,8,187,0.514,1,0,month
05fb1d1f12a54ed2232e95d453,8/20/2019 0:08,9/16/2019 0:47,0,648.65,648.65,1,Horizontal,-6,188,0.989,0,0,month
05fb1d1f12a54ed2232e95d453,8/20/2019 0:08,9/16/2019 0:47,0,648.65,648.65,1,Horizontal,-6,189,0.737,0,0,month
05fb1d1f12a54ed2232e95d453,8/20/2019 0:08,9/16/2019 0:47,0,648.65,648.65,1,Vertical,0,190,1.044,0,0,month
05fb1d1f12a54ed2232e95d453,8/20/2019 0:08,9/16/2019 0:47,0,648.65,648.65,1,Vertical,6,191,1.034,1,0,month
05fb1d1f12a54ed2232e95d453,8/20/2019 0:08,9/16/2019 0:47,0,648.65,648.65,1,Vertical,10,192,0.667,1,0,month
05fb1d1f12a54ed2232e95d453,8/20/2019 0:08,9/16/2019 0:47,0,648.65,648.65,1,Horizontal,0,193,0.826,1,0,month
05fb1d1f12a54ed2232e95d453,8/20/2019 0:08,9/16/2019 0:47,0,648.65,648.65,1,Horizontal,6,194,1.109,1,0,month
05fb1d1f12a54ed2232e95d453,8/20/2019 0:08,9/16/2019 0:47,0,648.65,648.65,1,Horizontal,2,195,1.6,1,0,month
05fb1d1f12a54ed2232e95d453,8/20/2019 0:08,9/16/2019 0:47,0,648.65,648.65,1,Vertical,-8,196,0.754,0,0,month
05fb1d1f12a54ed2232e95d453,8/20/2019 0:08,9/16/2019 0:47,0,648.65,648.65,1,Vertical,-4,197,0.99,0,0,month
05fb1d1f12a54ed2232e95d453,8/20/2019 0:08,9/16/2019 0:47,0,648.65,648.65,1,Vertical,8,198,0.612,1,0,month
05fb1d1f12a54ed2232e95d453,8/20/2019 0:08,9/16/2019 0:47,0,648.65,648.65,1,Horizontal,0,199,1.138,1,0,month
05fb1d1f12a54ed2232e95d453,8/20/2019 0:08,9/16/2019 0:47,0,648.65,648.65,1,Horizontal,-10,200,0.664,0,0,month
05fb1d1f12a54ed2232e95d453,8/20/2019 0:08,9/16/2019 0:47,0,648.65,648.65,1,Horizontal,-8,201,0.855,0,0,month
05fb1d1f12a54ed2232e95d453,8/20/2019 0:08,9/16/2019 0:47,0,648.65,648.65,1,Vertical,-8,202,0.601,0,0,month
05fb1d1f12a54ed2232e95d453,8/20/2019 0:08,9/16/2019 0:47,0,648.65,648.65,1,Vertical,4,203,0.544,1,0,month
05fb1d1f12a54ed2232e95d453,8/20/2019 0:08,9/16/2019 0:47,0,648.65,648.65,1,Vertical,4,204,6.171,1,0,month
05fb1d1f12a54ed2232e95d453,8/20/2019 0:08,9/16/2019 0:47,0,648.65,648.65,1,Horizontal,0,205,1.296,1,0,month
05fb1d1f12a54ed2232e95d453,8/20/2019 0:08,9/16/2019 0:47,0,648.65,648.65,1,Horizontal,10,206,0.651,1,0,month
05fb1d1f12a54ed2232e95d453,8/20/2019 0:08,9/16/2019 0:47,0,648.65,648.65,1,Horizontal,-2,207,1.207,0,0,month
05fb1d1f12a54ed2232e95d453,8/20/2019 0:08,9/16/2019 0:47,0,648.65,648.65,1,Vertical,0,208,1.219,0,0,month
05fb1d1f12a54ed2232e95d453,8/20/2019 0:08,9/16/2019 0:47,0,648.65,648.65,1,Vertical,4,209,5.844,1,0,month
05fb1d1f12a54ed2232e95d453,8/20/2019 0:08,9/16/2019 0:47,0,648.65,648.65,1,Vertical,8,210,1.234,1,0,month
05fb1d1f12a54ed2232e95d453,8/20/2019 0:08,9/16/2019 0:47,0,648.65,648.65,1,Horizontal,6,211,1.147,1,0,month
05fb1d1f12a54ed2232e95d453,8/20/2019 0:08,9/16/2019 0:47,0,648.65,648.65,1,Horizontal,-8,212,0.55,0,0,month
05fb1d1f12a54ed2232e95d453,8/20/2019 0:08,9/16/2019 0:47,0,648.65,648.65,1,Horizontal,-10,213,0.469,0,0,month
05fb1d1f12a54ed2232e95d453,8/20/2019 0:08,9/16/2019 0:47,0,648.65,648.65,1,Vertical,0,214,3.65,0,0,month
05fb1d1f12a54ed2232e95d453,8/20/2019 0:08,9/16/2019 0:47,0,648.65,648.65,1,Vertical,10,215,0.761,1,0,month
05fb1d1f12a54ed2232e95d453,8/20/2019 0:08,9/16/2019 0:47,0,648.65,648.65,1,Vertical,4,216,5.749,1,0,month
05fb1d1f12a54ed2232e95d453,8/20/2019 0:08,9/16/2019 0:47,0,648.65,648.65,1,Horizontal,0,217,1.87,1,0,month
05fb1d1f12a54ed2232e95d453,8/20/2019 0:08,9/16/2019 0:47,0,648.65,648.65,1,Horizontal,-4,218,0.565,0,0,month
05fb1d1f12a54ed2232e95d453,8/20/2019 0:08,9/16/2019 0:47,0,648.65,648.65,1,Horizontal,10,219,0.715,1,0,month
05fb1d1f12a54ed2232e95d453,8/20/2019 0:08,9/16/2019 0:47,0,648.65,648.65,1,Vertical,2,220,8.284,1,0,month
05fb1d1f12a54ed2232e95d453,8/20/2019 0:08,9/16/2019 0:47,0,648.65,648.65,1,Vertical,-4,221,0.593,0,0,month
05fb1d1f12a54ed2232e95d453,8/20/2019 0:08,9/16/2019 0:47,0,648.65,648.65,1,Vertical,-2,222,1.927,0,0,month
05fb1d1f12a54ed2232e95d453,8/20/2019 0:08,9/16/2019 0:47,0,648.65,648.65,1,Horizontal,0,223,4.538,1,0,month
05fb1d1f12a54ed2232e95d453,8/20/2019 0:08,9/16/2019 0:47,0,648.65,648.65,1,Horizontal,10,224,0.513,1,0,month
05fb1d1f12a54ed2232e95d453,8/20/2019 0:08,9/16/2019 0:47,0,648.65,648.65,1,Horizontal,-10,225,0.768,0,0,month
05fb1d1f12a54ed2232e95d453,8/20/2019 0:08,9/16/2019 0:47,0,648.65,648.65,1,Vertical,0,226,3.521,0,0,month
05fb1d1f12a54ed2232e95d453,8/20/2019 0:08,9/16/2019 0:47,0,648.65,648.65,1,Vertical,6,227,1.337,1,0,month
05fb1d1f12a54ed2232e95d453,8/20/2019 0:08,9/16/2019 0:47,0,648.65,648.65,1,Vertical,6,228,1.192,1,0,month
05fb1d1f12a54ed2232e95d453,8/20/2019 0:08,9/16/2019 0:47,0,648.65,648.65,1,Horizontal,-10,229,0.735,0,0,month
05fb1d1f12a54ed2232e95d453,8/20/2019 0:08,9/16/2019 0:47,0,648.65,648.65,1,Horizontal,10,230,0.589,1,0,month
05fb1d1f12a54ed2232e95d453,8/20/2019 0:08,9/16/2019 0:47,0,648.65,648.65,1,Horizontal,4,231,0.875,1,0,month
05fb1d1f12a54ed2232e95d453,8/20/2019 0:08,9/16/2019 0:47,0,648.65,648.65,1,Vertical,0,232,0.434,0,0,month
05fb1d1f12a54ed2232e95d453,8/20/2019 0:08,9/16/2019 0:47,0,648.65,648.65,1,Vertical,-6,233,0.746,0,0,month
05fb1d1f12a54ed2232e95d453,8/20/2019 0:08,9/16/2019 0:47,0,648.65,648.65,1,Vertical,-2,234,3.769,0,0,month
05fb1d1f12a54ed2232e95d453,8/20/2019 0:08,9/16/2019 0:47,0,648.65,648.65,1,Horizontal,-2,235,1.319,1,0,month
05fb1d1f12a54ed2232e95d453,8/20/2019 0:08,9/16/2019 0:47,0,648.65,648.65,1,Horizontal,-4,236,0.96,0,0,month
05fb1d1f12a54ed2232e95d453,8/20/2019 0:08,9/16/2019 0:47,0,648.65,648.65,1,Horizontal,-6,237,0.804,0,0,month
05fb1d1f12a54ed2232e95d453,8/20/2019 0:08,9/16/2019 0:47,0,648.65,648.65,1,Vertical,-10,238,0.881,0,0,month
05fb1d1f12a54ed2232e95d453,8/20/2019 0:08,9/16/2019 0:47,0,648.65,648.65,1,Vertical,10,239,0.837,1,0,month
05fb1d1f12a54ed2232e95d453,8/20/2019 0:08,9/16/2019 0:47,0,648.65,648.65,1,Vertical,-10,240,0.71,0,0,month
05fb1d1f12a54ed2232e95d453,8/20/2019 0:08,9/16/2019 0:47,0,648.65,648.65,1,Horizontal,10,241,0.91,1,0,month
05fb1d1f12a54ed2232e95d453,8/20/2019 0:08,9/16/2019 0:47,0,648.65,648.65,1,Horizontal,-6,242,0.574,0,0,month
05fb1d1f12a54ed2232e95d453,8/20/2019 0:08,9/16/2019 0:47,0,648.65,648.65,1,Horizontal,-10,243,0.47,0,0,month
05fb1d1f12a54ed2232e95d453,8/20/2019 0:08,9/16/2019 0:47,0,648.65,648.65,1,Vertical,-4,244,0.888,0,0,month
05fb1d1f12a54ed2232e95d453,8/20/2019 0:08,9/16/2019 0:47,0,648.65,648.65,1,Vertical,10,245,1.128,1,0,month
05fb1d1f12a54ed2232e95d453,8/20/2019 0:08,9/16/2019 0:47,0,648.65,648.65,1,Vertical,-10,246,0.589,0,0,month
05fb1d1f12a54ed2232e95d453,8/20/2019 0:08,9/16/2019 0:47,0,648.65,648.65,1,Horizontal,0,247,0.927,1,0,month
05fb1d1f12a54ed2232e95d453,8/20/2019 0:08,9/16/2019 0:47,0,648.65,648.65,1,Horizontal,-4,248,1.559,0,0,month
05fb1d1f12a54ed2232e95d453,8/20/2019 0:08,9/16/2019 0:47,0,648.65,648.65,1,Horizontal,-2,249,1.143,0,0,month
05fb1d1f12a54ed2232e95d453,8/20/2019 0:08,9/16/2019 0:47,0,648.65,648.65,1,Vertical,2,250,7.631,1,0,month
05fb1d1f12a54ed2232e95d453,8/20/2019 0:08,9/16/2019 0:47,0,648.65,648.65,1,Vertical,-4,251,3.39,0,0,month
05fb1d1f12a54ed2232e95d453,8/20/2019 0:08,9/16/2019 0:47,0,648.65,648.65,1,Vertical,6,252,0.636,1,0,month
05fb1d1f12a54ed2232e95d453,8/20/2019 0:08,9/16/2019 0:47,0,648.65,648.65,1,Horizontal,0,253,3.397,1,0,month
05fb1d1f12a54ed2232e95d453,8/20/2019 0:08,9/16/2019 0:47,0,648.65,648.65,1,Horizontal,-2,254,1.102,0,0,month
05fb1d1f12a54ed2232e95d453,8/20/2019 0:08,9/16/2019 0:47,0,648.65,648.65,1,Horizontal,10,255,0.614,1,0,month
05fb1d1f12a54ed2232e95d453,8/20/2019 0:08,9/16/2019 0:47,0,648.65,648.65,1,Vertical,0,256,0.947,0,0,month
05fb1d1f12a54ed2232e95d453,8/20/2019 0:08,9/16/2019 0:47,0,648.65,648.65,1,Vertical,2,257,7.674,1,0,month
05fb1d1f12a54ed2232e95d453,8/20/2019 0:08,9/16/2019 0:47,0,648.65,648.65,1,Vertical,-10,258,0.561,0,0,month
05fb1d1f12a54ed2232e95d453,8/20/2019 0:08,9/16/2019 0:47,0,648.65,648.65,1,Horizontal,4,259,0.807,1,0,month
05fb1d1f12a54ed2232e95d453,8/20/2019 0:08,9/16/2019 0:47,0,648.65,648.65,1,Horizontal,-8,260,0.579,0,0,month
05fb1d1f12a54ed2232e95d453,8/20/2019 0:08,9/16/2019 0:47,0,648.65,648.65,1,Horizontal,4,261,0.654,1,0,month
05fb1d1f12a54ed2232e95d453,8/20/2019 0:08,9/16/2019 0:47,0,648.65,648.65,1,Vertical,6,262,1.3,1,0,month
05fb1d1f12a54ed2232e95d453,8/20/2019 0:08,9/16/2019 0:47,0,648.65,648.65,1,Vertical,10,263,0.603,1,0,month
05fb1d1f12a54ed2232e95d453,8/20/2019 0:08,9/16/2019 0:47,0,648.65,648.65,1,Vertical,-2,264,0.89,0,0,month
05fb1d1f12a54ed2232e95d453,8/20/2019 0:08,9/16/2019 0:47,0,648.65,648.65,1,Horizontal,0,265,1.556,1,0,month
05fb1d1f12a54ed2232e95d453,8/20/2019 0:08,9/16/2019 0:47,0,648.65,648.65,1,Horizontal,4,266,0.588,1,0,month
05fb1d1f12a54ed2232e95d453,8/20/2019 0:08,9/16/2019 0:47,0,648.65,648.65,1,Horizontal,-4,267,1.725,0,0,month
05fb1d1f12a54ed2232e95d453,8/20/2019 0:08,9/16/2019 0:47,0,648.65,648.65,1,Vertical,0,268,0.906,0,0,month
05fb1d1f12a54ed2232e95d453,8/20/2019 0:08,9/16/2019 0:47,0,648.65,648.65,1,Vertical,-2,269,0.922,0,0,month
05fb1d1f12a54ed2232e95d453,8/20/2019 0:08,9/16/2019 0:47,0,648.65,648.65,1,Vertical,4,270,1.406,1,0,month
05fb1d1f12a54ed2232e95d453,8/20/2019 0:08,9/16/2019 0:47,0,648.65,648.65,1,Horizontal,-8,271,0.885,0,0,month
05fb1d1f12a54ed2232e95d453,8/20/2019 0:08,9/16/2019 0:47,0,648.65,648.65,1,Horizontal,-8,272,0.776,0,0,month
05fb1d1f12a54ed2232e95d453,8/20/2019 0:08,9/16/2019 0:47,0,648.65,648.65,1,Horizontal,6,273,0.606,1,0,month
05fb1d1f12a54ed2232e95d453,8/20/2019 0:08,9/16/2019 0:47,0,648.65,648.65,1,Vertical,-10,274,0.722,0,0,month
05fb1d1f12a54ed2232e95d453,8/20/2019 0:08,9/16/2019 0:47,0,648.65,648.65,1,Vertical,2,275,1.325,1,0,month
05fb1d1f12a54ed2232e95d453,8/20/2019 0:08,9/16/2019 0:47,0,648.65,648.65,1,Vertical,-2,276,4.483,1,0,month
05fb1d1f12a54ed2232e95d453,8/20/2019 0:08,9/16/2019 0:47,0,648.65,648.65,1,Horizontal,0,277,1.47,1,0,month
05fb1d1f12a54ed2232e95d453,8/20/2019 0:08,9/16/2019 0:47,0,648.65,648.65,1,Horizontal,-4,278,0.982,0,0,month
05fb1d1f12a54ed2232e95d453,8/20/2019 0:08,9/16/2019 0:47,0,648.65,648.65,1,Horizontal,-6,279,0.629,0,0,month
05fb1d1f12a54ed2232e95d453,8/20/2019 0:08,9/16/2019 0:47,0,648.65,648.65,1,Vertical,0,280,3.675,1,0,month
05fb1d1f12a54ed2232e95d453,8/20/2019 0:08,9/16/2019 0:47,0,648.65,648.65,1,Vertical,10,281,0.63,1,0,month
05fb1d1f12a54ed2232e95d453,8/20/2019 0:08,9/16/2019 0:47,0,648.65,648.65,1,Vertical,-4,282,0.799,0,0,month
05fb1d1f12a54ed2232e95d453,8/20/2019 0:08,9/16/2019 0:47,0,648.65,648.65,1,Horizontal,4,283,0.637,1,0,month
05fb1d1f12a54ed2232e95d453,8/20/2019 0:08,9/16/2019 0:47,0,648.65,648.65,1,Horizontal,6,284,0.811,1,0,month
05fb1d1f12a54ed2232e95d453,8/20/2019 0:08,9/16/2019 0:47,0,648.65,648.65,1,Horizontal,10,285,0.525,1,0,month
05fb1d1f12a54ed2232e95d453,8/20/2019 0:08,9/16/2019 0:47,0,648.65,648.65,1,Vertical,0,286,1.105,0,0,month
05fb1d1f12a54ed2232e95d453,8/20/2019 0:08,9/16/2019 0:47,0,648.65,648.65,1,Vertical,-8,287,1.147,0,0,month
05fb1d1f12a54ed2232e95d453,8/20/2019 0:08,9/16/2019 0:47,0,648.65,648.65,1,Vertical,8,288,1.174,1,0,month
05fb1d1f12a54ed2232e95d453,8/20/2019 0:08,9/16/2019 0:47,0,648.65,648.65,1,Horizontal,0,289,1.752,1,0,month
05fb1d1f12a54ed2232e95d453,8/20/2019 0:08,9/16/2019 0:47,0,648.65,648.65,1,Horizontal,2,290,0.983,1,0,month
05fb1d1f12a54ed2232e95d453,8/20/2019 0:08,9/16/2019 0:47,0,648.65,648.65,1,Horizontal,-2,291,1.449,0,0,month
05fb1d1f12a54ed2232e95d453,8/20/2019 0:08,9/16/2019 0:47,0,648.65,648.65,1,Vertical,4,292,1.352,1,0,month
05fb1d1f12a54ed2232e95d453,8/20/2019 0:08,9/16/2019 0:47,0,648.65,648.65,1,Vertical,-6,293,1.198,0,0,month
05fb1d1f12a54ed2232e95d453,8/20/2019 0:08,9/16/2019 0:47,0,648.65,648.65,1,Vertical,4,294,1.073,1,0,month
05fb1d1f12a54ed2232e95d453,8/20/2019 0:08,9/16/2019 0:47,0,648.65,648.65,1,Horizontal,-2,295,1.124,1,0,month
05fb1d1f12a54ed2232e95d453,8/20/2019 0:08,9/16/2019 0:47,0,648.65,648.65,1,Horizontal,-8,296,1.058,0,0,month
05fb1d1f12a54ed2232e95d453,8/20/2019 0:08,9/16/2019 0:47,0,648.65,648.65,1,Horizontal,2,297,1.248,1,0,month
05fb1d1f12a54ed2232e95d453,8/20/2019 0:08,9/16/2019 0:47,0,648.65,648.65,1,Vertical,0,298,1.49,1,0,month
05fb1d1f12a54ed2232e95d453,8/20/2019 0:08,9/16/2019 0:47,0,648.65,648.65,1,Vertical,4,299,0.858,1,0,month
05fb1d1f12a54ed2232e95d453,8/20/2019 0:08,9/16/2019 0:47,0,648.65,648.65,1,Vertical,6,300,1.553,1,0,month
05fb1d1f12a54ed2232e95d453,8/20/2019 0:08,9/16/2019 0:47,0,648.65,648.65,1,Horizontal,0,301,3.503,1,0,month
05fb1d1f12a54ed2232e95d453,8/20/2019 0:08,9/16/2019 0:47,0,648.65,648.65,1,Horizontal,6,302,0.938,1,0,month
05fb1d1f12a54ed2232e95d453,8/20/2019 0:08,9/16/2019 0:47,0,648.65,648.65,1,Horizontal,8,303,0.918,1,0,month
05fb1d1f12a54ed2232e95d453,8/20/2019 0:08,9/16/2019 0:47,0,648.65,648.65,1,Vertical,0,304,1.165,0,0,month
05fb1d1f12a54ed2232e95d453,8/20/2019 0:08,9/16/2019 0:47,0,648.65,648.65,1,Vertical,8,305,0.726,1,0,month
05fb1d1f12a54ed2232e95d453,8/20/2019 0:08,9/16/2019 0:47,0,648.65,648.65,1,Vertical,8,306,1.369,1,0,month
05fb1d1f12a54ed2232e95d453,8/20/2019 0:08,9/16/2019 0:47,0,648.65,648.65,1,Horizontal,0,307,2.119,1,0,month
05fb1d1f12a54ed2232e95d453,8/20/2019 0:08,9/16/2019 0:47,0,648.65,648.65,1,Horizontal,-10,308,0.785,0,0,month
05fb1d1f12a54ed2232e95d453,8/20/2019 0:08,9/16/2019 0:47,0,648.65,648.65,1,Horizontal,10,309,0.514,1,0,month
05fb1d1f12a54ed2232e95d453,8/20/2019 0:08,9/16/2019 0:47,0,648.65,648.65,1,Vertical,-6,310,0.753,0,0,month
05fb1d1f12a54ed2232e95d453,8/20/2019 0:08,9/16/2019 0:47,0,648.65,648.65,1,Vertical,-8,311,2.245,0,0,month
05fb1d1f12a54ed2232e95d453,8/20/2019 0:08,9/16/2019 0:47,0,648.65,648.65,1,Vertical,-2,312,5.62,1,0,month
05fb1d1f12a54ed2232e95d453,8/20/2019 0:08,9/16/2019 0:47,0,648.65,648.65,1,Horizontal,8,313,0.598,1,0,month
05fb1d1f12a54ed2232e95d453,8/20/2019 0:08,9/16/2019 0:47,0,648.65,648.65,1,Horizontal,-8,314,3.893,0,0,month
05fb1d1f12a54ed2232e95d453,8/20/2019 0:08,9/16/2019 0:47,0,648.65,648.65,1,Horizontal,-2,315,1.571,0,0,month
05fb1d1f12a54ed2232e95d453,8/20/2019 0:08,9/16/2019 0:47,0,648.65,648.65,1,Vertical,0,316,1.371,0,0,month
05fb1d1f12a54ed2232e95d453,8/20/2019 0:08,9/16/2019 0:47,0,648.65,648.65,1,Vertical,8,317,0.834,1,0,month
05fb1d1f12a54ed2232e95d453,8/20/2019 0:08,9/16/2019 0:47,0,648.65,648.65,1,Vertical,-8,318,0.806,0,0,month
05fb1d1f12a54ed2232e95d453,8/20/2019 0:08,9/16/2019 0:47,0,648.65,648.65,1,Horizontal,-6,319,0.641,0,0,month
05fb1d1f12a54ed2232e95d453,8/20/2019 0:08,9/16/2019 0:47,0,648.65,648.65,1,Horizontal,2,320,1.13,1,0,month
05fb1d1f12a54ed2232e95d453,8/20/2019 0:08,9/16/2019 0:47,0,648.65,648.65,1,Horizontal,6,321,1.489,1,0,month
05fb1d1f12a54ed2232e95d453,8/20/2019 0:08,9/16/2019 0:47,0,648.65,648.65,1,Vertical,-10,322,0.68,0,0,month
05fb1d1f12a54ed2232e95d453,8/20/2019 0:08,9/16/2019 0:47,0,648.65,648.65,1,Vertical,2,323,1.471,1,0,month
05fb1d1f12a54ed2232e95d453,8/20/2019 0:08,9/16/2019 0:47,0,648.65,648.65,1,Vertical,2,324,1.138,1,0,month
05fb1d1f12a54ed2232e95d453,8/20/2019 0:08,9/16/2019 0:47,0,648.65,648.65,1,Horizontal,0,325,0.648,1,0,month
05fb1d1f12a54ed2232e95d453,8/20/2019 0:08,9/16/2019 0:47,0,648.65,648.65,1,Horizontal,8,326,0.741,1,0,month
05fb1d1f12a54ed2232e95d453,8/20/2019 0:08,9/16/2019 0:47,0,648.65,648.65,1,Horizontal,-4,327,0.711,0,0,month
05fb1d1f12a54ed2232e95d453,8/20/2019 0:08,9/16/2019 0:47,0,648.65,648.65,1,Vertical,0,328,4.756,1,0,month
05fb1d1f12a54ed2232e95d453,8/20/2019 0:08,9/16/2019 0:47,0,648.65,648.65,1,Vertical,6,329,0.814,1,0,month
05fb1d1f12a54ed2232e95d453,8/20/2019 0:08,9/16/2019 0:47,0,648.65,648.65,1,Vertical,6,330,1.566,1,0,month
05fb1d1f12a54ed2232e95d453,8/20/2019 0:08,9/16/2019 0:47,0,648.65,648.65,1,Horizontal,0,331,1.06,1,0,month
05fb1d1f12a54ed2232e95d453,8/20/2019 0:08,9/16/2019 0:47,0,648.65,648.65,1,Horizontal,-6,332,0.64,0,0,month
05fb1d1f12a54ed2232e95d453,8/20/2019 0:08,9/16/2019 0:47,0,648.65,648.65,1,Horizontal,8,333,0.502,1,0,month
05fb1d1f12a54ed2232e95d453,8/20/2019 0:08,9/16/2019 0:47,0,648.65,648.65,1,Vertical,-6,334,0.669,0,0,month
05fb1d1f12a54ed2232e95d453,8/20/2019 0:08,9/16/2019 0:47,0,648.65,648.65,1,Vertical,-10,335,0.554,0,0,month
05fb1d1f12a54ed2232e95d453,8/20/2019 0:08,9/16/2019 0:47,0,648.65,648.65,1,Vertical,-8,336,0.502,0,0,month
05fb1d1f12a54ed2232e95d453,8/20/2019 0:08,9/16/2019 0:47,0,648.65,648.65,1,Horizontal,-4,337,1.297,0,0,month
05fb1d1f12a54ed2232e95d453,8/20/2019 0:08,9/16/2019 0:47,0,648.65,648.65,1,Horizontal,-10,338,0.565,0,0,month
05fb1d1f12a54ed2232e95d453,8/20/2019 0:08,9/16/2019 0:47,0,648.65,648.65,1,Horizontal,2,339,0.899,1,0,month
05fb1d1f12a54ed2232e95d453,8/20/2019 0:08,9/16/2019 0:47,0,648.65,648.65,1,Vertical,0,340,2.394,1,0,month
05fb1d1f12a54ed2232e95d453,8/20/2019 0:08,9/16/2019 0:47,0,648.65,648.65,1,Vertical,-4,341,3.368,0,0,month
05fb1d1f12a54ed2232e95d453,8/20/2019 0:08,9/16/2019 0:47,0,648.65,648.65,1,Vertical,-4,342,3.572,0,0,month
05fb1d1f12a54ed2232e95d453,8/20/2019 0:08,9/16/2019 0:47,0,648.65,648.65,1,Horizontal,4,343,0.756,1,0,month
05fb1d1f12a54ed2232e95d453,8/20/2019 0:08,9/16/2019 0:47,0,648.65,648.65,1,Horizontal,-6,344,0.861,0,0,month
05fb1d1f12a54ed2232e95d453,8/20/2019 0:08,9/16/2019 0:47,0,648.65,648.65,1,Horizontal,-10,345,0.579,0,0,month
05fb1d1f12a54ed2232e95d453,8/20/2019 0:08,9/16/2019 0:47,0,648.65,648.65,1,Vertical,-6,346,0.939,0,0,month
05fb1d1f12a54ed2232e95d453,8/20/2019 0:08,9/16/2019 0:47,0,648.65,648.65,1,Vertical,8,347,0.9,1,0,month
05fb1d1f12a54ed2232e95d453,8/20/2019 0:08,9/16/2019 0:47,0,648.65,648.65,1,Vertical,4,348,1.574,1,0,month
05fb1d1f12a54ed2232e95d453,8/20/2019 0:08,9/16/2019 0:47,0,648.65,648.65,1,Horizontal,2,349,4.906,1,0,month
05fb1d1f12a54ed2232e95d453,8/20/2019 0:08,9/16/2019 0:47,0,648.65,648.65,1,Horizontal,8,350,0.553,1,0,month
05fb1d1f12a54ed2232e95d453,8/20/2019 0:08,9/16/2019 0:47,0,648.65,648.65,1,Horizontal,-10,351,0.451,0,0,month
05fb1d1f12a54ed2232e95d453,8/20/2019 0:08,9/16/2019 0:47,0,648.65,648.65,1,Vertical,-8,352,0.631,0,0,month
05fb1d1f12a54ed2232e95d453,8/20/2019 0:08,9/16/2019 0:47,0,648.65,648.65,1,Vertical,-2,353,0.637,0,0,month
05fb1d1f12a54ed2232e95d453,8/20/2019 0:08,9/16/2019 0:47,0,648.65,648.65,1,Vertical,-6,354,0.569,1,0,month
05fb1d1f12a54ed2232e95d453,8/20/2019 0:08,9/16/2019 0:47,0,648.65,648.65,1,Horizontal,0,355,7.915,0,0,month
05fb1d1f12a54ed2232e95d453,8/20/2019 0:08,9/16/2019 0:47,0,648.65,648.65,1,Horizontal,10,356,0.647,1,0,month
05fb1d1f12a54ed2232e95d453,8/20/2019 0:08,9/16/2019 0:47,0,648.65,648.65,1,Horizontal,6,357,0.667,1,0,month
05fb1d1f12a54ed2232e95d453,8/20/2019 0:08,9/16/2019 0:47,0,648.65,648.65,1,Vertical,0,358,1.855,0,0,month
05fb1d1f12a54ed2232e95d453,8/20/2019 0:08,9/16/2019 0:47,0,648.65,648.65,1,Vertical,10,359,0.894,1,0,month
05fb1d1f12a54ed2232e95d453,8/20/2019 0:08,9/16/2019 0:47,0,648.65,648.65,1,Vertical,10,360,0.638,1,0,month
05fb1d1f12a54ed2232e95d453,8/20/2019 0:08,9/16/2019 0:47,0,648.65,648.65,1,Horizontal,6,361,0.809,1,0,month
05fb1d1f12a54ed2232e95d453,8/20/2019 0:08,9/16/2019 0:47,0,648.65,648.65,1,Horizontal,-2,362,1.498,0,0,month
05fb1d1f12a54ed2232e95d453,8/20/2019 0:08,9/16/2019 0:47,0,648.65,648.65,1,Horizontal,4,363,1.392,1,0,month
05fb1d1f12a54ed2232e95d453,8/20/2019 0:08,9/16/2019 0:47,0,648.65,648.65,1,Vertical,0,364,4.551,1,0,month
05fb1d1f12a54ed2232e95d453,8/20/2019 0:08,9/16/2019 0:47,0,648.65,648.65,1,Vertical,6,365,0.963,1,0,month
05fb1d1f12a54ed2232e95d453,8/20/2019 0:08,9/16/2019 0:47,0,648.65,648.65,1,Vertical,-6,366,0.841,0,0,month
05fb1d1f12a54ed2232e95d453,8/20/2019 0:08,9/16/2019 0:47,0,648.65,648.65,1,Horizontal,0,367,4.588,0,0,month
05fb1d1f12a54ed2232e95d453,8/20/2019 0:08,9/16/2019 0:47,0,648.65,648.65,1,Horizontal,6,368,0.939,1,0,month
05fb1d1f12a54ed2232e95d453,8/20/2019 0:08,9/16/2019 0:47,0,648.65,648.65,1,Horizontal,6,369,2.827,1,0,month
05fb1d1f12a54ed2232e95d453,8/20/2019 0:08,9/16/2019 0:47,0,648.65,648.65,1,Vertical,-2,370,1.39,0,0,month
05fb1d1f12a54ed2232e95d453,8/20/2019 0:08,9/16/2019 0:47,0,648.65,648.65,1,Vertical,6,371,1.091,1,0,month
05fb1d1f12a54ed2232e95d453,8/20/2019 0:08,9/16/2019 0:47,0,648.65,648.65,1,Vertical,4,372,1.552,1,0,month
05fb1d1f12a54ed2232e95d453,8/20/2019 0:08,9/16/2019 0:47,0,648.65,648.65,1,Horizontal,0,373,7.261,1,0,month
05fb1d1f12a54ed2232e95d453,8/20/2019 0:08,9/16/2019 0:47,0,648.65,648.65,1,Horizontal,-2,374,2.602,0,0,month
05fb1d1f12a54ed2232e95d453,8/20/2019 0:08,9/16/2019 0:47,0,648.65,648.65,1,Horizontal,-4,375,1.033,0,0,month
05fb1d1f12a54ed2232e95d453,8/20/2019 0:08,9/16/2019 0:47,0,648.65,648.65,1,Vertical,0,376,3.051,1,0,month
05fb1d1f12a54ed2232e95d453,8/20/2019 0:08,9/16/2019 0:47,0,648.65,648.65,1,Vertical,2,377,8.497,0,0,month
05fb1d1f12a54ed2232e95d453,8/20/2019 0:08,9/16/2019 0:47,0,648.65,648.65,1,Vertical,10,378,0.995,1,0,month
05fb1d1f12a54ed2232e95d453,8/20/2019 0:08,9/16/2019 0:47,0,648.65,648.65,1,Horizontal,-6,379,1,0,0,month
05fb1d1f12a54ed2232e95d453,8/20/2019 0:08,9/16/2019 0:47,0,648.65,648.65,1,Horizontal,8,380,1.315,1,0,month
05fb1d1f12a54ed2232e95d453,8/20/2019 0:08,9/16/2019 0:47,0,648.65,648.65,1,Horizontal,4,381,1.26,1,0,month
05fb1d1f12a54ed2232e95d453,8/20/2019 0:08,9/16/2019 0:47,0,648.65,648.65,1,Vertical,0,382,1.779,0,0,month
05fb1d1f12a54ed2232e95d453,8/20/2019 0:08,9/16/2019 0:47,0,648.65,648.65,1,Vertical,-4,383,1.185,0,0,month
05fb1d1f12a54ed2232e95d453,8/20/2019 0:08,9/16/2019 0:47,0,648.65,648.65,1,Vertical,2,384,1.846,1,0,month
05fb1d1f12a54ed2232e95d453,8/20/2019 0:08,9/16/2019 0:47,0,648.65,648.65,1,Horizontal,0,385,1.74,1,0,month
05fb1d1f12a54ed2232e95d453,8/20/2019 0:08,9/16/2019 0:47,0,648.65,648.65,1,Horizontal,2,386,0.684,1,0,month
05fb1d1f12a54ed2232e95d453,8/20/2019 0:08,9/16/2019 0:47,0,648.65,648.65,1,Horizontal,2,387,1.57,1,0,month
05fb1d1f12a54ed2232e95d453,8/20/2019 0:08,9/16/2019 0:47,0,648.65,648.65,1,Vertical,-8,388,0.619,0,0,month
05fb1d1f12a54ed2232e95d453,8/20/2019 0:08,9/16/2019 0:47,0,648.65,648.65,1,Vertical,-10,389,0.532,0,0,month
05fb1d1f12a54ed2232e95d453,8/20/2019 0:08,9/16/2019 0:47,0,648.65,648.65,1,Vertical,-2,390,1.496,0,0,month
05fb1d1f12a54ed2232e95d453,8/20/2019 0:08,9/16/2019 0:47,0,648.65,648.65,1,Horizontal,-4,391,1.089,0,0,month
05fb1d1f12a54ed2232e95d453,8/20/2019 0:08,9/16/2019 0:47,0,648.65,648.65,1,Horizontal,-10,392,0.52,0,0,month
05fb1d1f12a54ed2232e95d453,8/20/2019 0:08,9/16/2019 0:47,0,648.65,648.65,1,Horizontal,2,393,0.558,1,0,month
05fb1d1f12a54ed2232e95d453,8/20/2019 0:08,9/16/2019 0:47,0,648.65,648.65,1,Vertical,0,394,0.587,0,0,month
05fb1d1f12a54ed2232e95d453,8/20/2019 0:08,9/16/2019 0:47,0,648.65,648.65,1,Vertical,-8,395,3.192,0,0,month
05fb1d1f12a54ed2232e95d453,8/20/2019 0:08,9/16/2019 0:47,0,648.65,648.65,1,Vertical,2,396,5.599,1,0,month
05fb1d1f12a54ed2232e95d453,8/20/2019 0:08,9/16/2019 0:47,0,648.65,648.65,1,Horizontal,0,397,1.02,1,0,month
05fb1d1f12a54ed2232e95d453,8/20/2019 0:08,9/16/2019 0:47,0,648.65,648.65,1,Horizontal,4,398,2.244,1,0,month
05fb1d1f12a54ed2232e95d453,8/20/2019 0:08,9/16/2019 0:47,0,648.65,648.65,1,Horizontal,-2,399,0.866,0,0,month
05fb1d1f12a54ed2232e95d453,8/20/2019 0:08,9/16/2019 0:47,0,648.65,648.65,1,Vertical,8,400,0.752,1,0,month
05fb1d1f12a54ed2232e95d453,8/20/2019 0:08,9/16/2019 0:47,0,648.65,648.65,1,Vertical,-6,401,0.85,0,0,month
05fb1d1f12a54ed2232e95d453,8/20/2019 0:08,9/16/2019 0:47,0,648.65,648.65,1,Vertical,-4,402,5.604,0,0,month
05fb1d1f12a54ed2232e95d453,8/20/2019 0:08,9/16/2019 0:47,0,648.65,648.65,1,Horizontal,2,403,0.626,1,0,month
05fb1d1f12a54ed2232e95d453,8/20/2019 0:08,9/16/2019 0:47,0,648.65,648.65,1,Horizontal,8,404,0.527,1,0,month
05fb1d1f12a54ed2232e95d453,8/20/2019 0:08,9/16/2019 0:47,0,648.65,648.65,1,Horizontal,-8,405,0.606,0,0,month
05fb1d1f12a54ed2232e95d453,8/20/2019 0:08,9/16/2019 0:47,0,648.65,648.65,1,Vertical,-10,406,4.538,0,0,month
05fb1d1f12a54ed2232e95d453,8/20/2019 0:08,9/16/2019 0:47,0,648.65,648.65,1,Vertical,10,407,0.772,1,0,month
05fb1d1f12a54ed2232e95d453,8/20/2019 0:08,9/16/2019 0:47,0,648.65,648.65,1,Vertical,-4,408,0.929,0,0,month
05fb1d1f12a54ed2232e95d453,8/20/2019 0:08,9/16/2019 0:47,0,648.65,648.65,1,Horizontal,8,409,1.136,1,0,month
05fb1d1f12a54ed2232e95d453,8/20/2019 0:08,9/16/2019 0:47,0,648.65,648.65,1,Horizontal,8,410,0.568,1,0,month
05fb1d1f12a54ed2232e95d453,8/20/2019 0:08,9/16/2019 0:47,0,648.65,648.65,1,Horizontal,-8,411,1.006,0,0,month
05fb1d1f12a54ed2232e95d453,8/20/2019 0:08,9/16/2019 0:47,0,648.65,648.65,1,Vertical,0,412,1.823,0,0,month
05fb1d1f12a54ed2232e95d453,8/20/2019 0:08,9/16/2019 0:47,0,648.65,648.65,1,Vertical,8,413,0.86,1,0,month
05fb1d1f12a54ed2232e95d453,8/20/2019 0:08,9/16/2019 0:47,0,648.65,648.65,1,Vertical,-2,414,0.801,0,0,month
05fb1d1f12a54ed2232e95d453,8/20/2019 0:08,9/16/2019 0:47,0,648.65,648.65,1,Horizontal,0,415,1.439,0,0,month
05fb1d1f12a54ed2232e95d453,8/20/2019 0:08,9/16/2019 0:47,0,648.65,648.65,1,Horizontal,-8,416,0.771,0,0,month
05fb1d1f12a54ed2232e95d453,8/20/2019 0:08,9/16/2019 0:47,0,648.65,648.65,1,Horizontal,-4,417,0.7,0,0,month
05fb1d1f12a54ed2232e95d453,8/20/2019 0:08,9/16/2019 0:47,0,648.65,648.65,1,Vertical,8,418,1.232,1,0,month
05fb1d1f12a54ed2232e95d453,8/20/2019 0:08,9/16/2019 0:47,0,648.65,648.65,1,Vertical,-8,419,0.704,0,0,month
05fb1d1f12a54ed2232e95d453,8/20/2019 0:08,9/16/2019 0:47,0,648.65,648.65,1,Vertical,2,420,1.187,1,0,month
05fb1d1f12a54ed2232e95d453,8/20/2019 0:08,9/16/2019 0:47,0,648.65,648.65,1,Horizontal,10,421,0.895,1,0,month
05fb1d1f12a54ed2232e95d453,8/20/2019 0:08,9/16/2019 0:47,0,648.65,648.65,1,Horizontal,-6,422,0.942,0,0,month
05fb1d1f12a54ed2232e95d453,8/20/2019 0:08,9/16/2019 0:47,0,648.65,648.65,1,Horizontal,4,423,0.555,1,0,month
05fb1d1f12a54ed2232e95d453,8/20/2019 0:08,9/16/2019 0:47,0,648.65,648.65,1,Vertical,-6,424,0.602,0,0,month
05fb1d1f12a54ed2232e95d453,8/20/2019 0:08,9/16/2019 0:47,0,648.65,648.65,1,Vertical,-6,425,0.737,0,0,month
05fb1d1f12a54ed2232e95d453,8/20/2019 0:08,9/16/2019 0:47,0,648.65,648.65,1,Vertical,-10,426,0.637,0,0,month
05fb1d1f12a54ed2232e95d453,8/20/2019 0:08,9/16/2019 0:47,0,648.65,648.65,1,Horizontal,8,427,0.607,1,0,month
05fb1d1f12a54ed2232e95d453,8/20/2019 0:08,9/16/2019 0:47,0,648.65,648.65,1,Horizontal,-6,428,0.755,0,0,month
05fb1d1f12a54ed2232e95d453,8/20/2019 0:08,9/16/2019 0:47,0,648.65,648.65,1,Horizontal,-6,429,0.779,0,0,month
05fb1d1f12a54ed2232e95d453,8/20/2019 0:08,9/16/2019 0:47,0,648.65,648.65,1,Vertical,0,430,1.205,0,0,month
05fb1d1f12a54ed2232e95d453,8/20/2019 0:08,9/16/2019 0:47,0,648.65,648.65,1,Vertical,6,431,0.82,1,0,month
05fb1d1f12a54ed2232e95d453,8/20/2019 0:08,9/16/2019 0:47,0,648.65,648.65,1,Vertical,10,432,0.653,1,0,month
05fb1d1f12a54ed2232e95d453,8/20/2019 0:08,9/16/2019 0:47,0,648.65,648.65,1,Horizontal,0,433,5.176,0,0,month
05fb1d1f12a54ed2232e95d453,8/20/2019 0:08,9/16/2019 0:47,0,648.65,648.65,1,Horizontal,6,434,0.555,1,0,month
05fb1d1f12a54ed2232e95d453,8/20/2019 0:08,9/16/2019 0:47,0,648.65,648.65,1,Horizontal,2,435,0.514,1,0,month
05fb1d1f12a54ed2232e95d453,8/20/2019 0:08,9/16/2019 0:47,0,648.65,648.65,1,Vertical,-8,436,0.523,0,0,month
05fb1d1f12a54ed2232e95d453,8/20/2019 0:08,9/16/2019 0:47,0,648.65,648.65,1,Vertical,-4,437,0.643,0,0,month
05fb1d1f12a54ed2232e95d453,8/20/2019 0:08,9/16/2019 0:47,0,648.65,648.65,1,Vertical,8,438,0.81,1,0,month
05fb1d1f12a54ed2232e95d453,8/20/2019 0:08,9/16/2019 0:47,0,648.65,648.65,1,Horizontal,0,439,0.652,1,0,month
05fb1d1f12a54ed2232e95d453,8/20/2019 0:08,9/16/2019 0:47,0,648.65,648.65,1,Horizontal,-10,440,0.477,0,0,month
05fb1d1f12a54ed2232e95d453,8/20/2019 0:08,9/16/2019 0:47,0,648.65,648.65,1,Horizontal,-8,441,0.468,0,0,month
05fb1d1f12a54ed2232e95d453,8/20/2019 0:08,9/16/2019 0:47,0,648.65,648.65,1,Vertical,-8,442,0.602,0,0,month
05fb1d1f12a54ed2232e95d453,8/20/2019 0:08,9/16/2019 0:47,0,648.65,648.65,1,Vertical,4,443,0.849,1,0,month
05fb1d1f12a54ed2232e95d453,8/20/2019 0:08,9/16/2019 0:47,0,648.65,648.65,1,Vertical,4,444,0.779,1,0,month
05fb1d1f12a54ed2232e95d453,8/20/2019 0:08,9/16/2019 0:47,0,648.65,648.65,1,Horizontal,0,445,1.911,1,0,month
05fb1d1f12a54ed2232e95d453,8/20/2019 0:08,9/16/2019 0:47,0,648.65,648.65,1,Horizontal,10,446,0.596,1,0,month
05fb1d1f12a54ed2232e95d453,8/20/2019 0:08,9/16/2019 0:47,0,648.65,648.65,1,Horizontal,-2,447,0.891,0,0,month
05fb1d1f12a54ed2232e95d453,8/20/2019 0:08,9/16/2019 0:47,0,648.65,648.65,1,Vertical,0,448,1.906,0,0,month
05fb1d1f12a54ed2232e95d453,8/20/2019 0:08,9/16/2019 0:47,0,648.65,648.65,1,Vertical,4,449,1.304,1,0,month
05fb1d1f12a54ed2232e95d453,8/20/2019 0:08,9/16/2019 0:47,0,648.65,648.65,1,Vertical,8,450,0.888,1,0,month
05fb1d1f12a54ed2232e95d453,8/20/2019 0:08,9/16/2019 0:47,0,648.65,648.65,1,Horizontal,6,451,0.695,1,0,month
05fb1d1f12a54ed2232e95d453,8/20/2019 0:08,9/16/2019 0:47,0,648.65,648.65,1,Horizontal,-8,452,0.548,0,0,month
05fb1d1f12a54ed2232e95d453,8/20/2019 0:08,9/16/2019 0:47,0,648.65,648.65,1,Horizontal,-10,453,0.492,0,0,month
05fb1d1f12a54ed2232e95d453,8/20/2019 0:08,9/16/2019 0:47,0,648.65,648.65,1,Vertical,0,454,1.01,1,0,month
05fb1d1f12a54ed2232e95d453,8/20/2019 0:08,9/16/2019 0:47,0,648.65,648.65,1,Vertical,10,455,0.653,1,0,month
05fb1d1f12a54ed2232e95d453,8/20/2019 0:08,9/16/2019 0:47,0,648.65,648.65,1,Vertical,4,456,1.228,1,0,month
05fb1d1f12a54ed2232e95d453,8/20/2019 0:08,9/16/2019 0:47,0,648.65,648.65,1,Horizontal,0,457,1.699,1,0,month
05fb1d1f12a54ed2232e95d453,8/20/2019 0:08,9/16/2019 0:47,0,648.65,648.65,1,Horizontal,-4,458,0.861,0,0,month
05fb1d1f12a54ed2232e95d453,8/20/2019 0:08,9/16/2019 0:47,0,648.65,648.65,1,Horizontal,10,459,0.582,1,0,month
05fb1d1f12a54ed2232e95d453,8/20/2019 0:08,9/16/2019 0:47,0,648.65,648.65,1,Vertical,2,460,0.828,1,0,month
05fb1d1f12a54ed2232e95d453,8/20/2019 0:08,9/16/2019 0:47,0,648.65,648.65,1,Vertical,-4,461,0.828,0,0,month
05fb1d1f12a54ed2232e95d453,8/20/2019 0:08,9/16/2019 0:47,0,648.65,648.65,1,Vertical,-2,462,3.846,0,0,month
05fb1d1f12a54ed2232e95d453,8/20/2019 0:08,9/16/2019 0:47,0,648.65,648.65,1,Horizontal,0,463,1.098,1,0,month
05fb1d1f12a54ed2232e95d453,8/20/2019 0:08,9/16/2019 0:47,0,648.65,648.65,1,Horizontal,10,464,0.578,1,0,month
05fb1d1f12a54ed2232e95d453,8/20/2019 0:08,9/16/2019 0:47,0,648.65,648.65,1,Horizontal,-10,465,0.676,0,0,month
05fb1d1f12a54ed2232e95d453,8/20/2019 0:08,9/16/2019 0:47,0,648.65,648.65,1,Vertical,0,466,1.025,1,0,month
05fb1d1f12a54ed2232e95d453,8/20/2019 0:08,9/16/2019 0:47,0,648.65,648.65,1,Vertical,6,467,1.019,1,0,month
05fb1d1f12a54ed2232e95d453,8/20/2019 0:08,9/16/2019 0:47,0,648.65,648.65,1,Vertical,6,468,1.817,1,0,month
05fb1d1f12a54ed2232e95d453,8/20/2019 0:08,9/16/2019 0:47,0,648.65,648.65,1,Horizontal,-10,469,0.635,0,0,month
05fb1d1f12a54ed2232e95d453,8/20/2019 0:08,9/16/2019 0:47,0,648.65,648.65,1,Horizontal,10,470,0.791,1,0,month
05fb1d1f12a54ed2232e95d453,8/20/2019 0:08,9/16/2019 0:47,0,648.65,648.65,1,Horizontal,4,471,0.847,1,0,month
05fb1d1f12a54ed2232e95d453,8/20/2019 0:08,9/16/2019 0:47,0,648.65,648.65,1,Vertical,0,472,8.951,0,0,month
05fb1d1f12a54ed2232e95d453,8/20/2019 0:08,9/16/2019 0:47,0,648.65,648.65,1,Vertical,-6,473,0.84,0,0,month
05fb1d1f12a54ed2232e95d453,8/20/2019 0:08,9/16/2019 0:47,0,648.65,648.65,1,Vertical,-2,474,1.555,0,0,month
05fb1d1f12a54ed2232e95d453,8/20/2019 0:08,9/16/2019 0:47,0,648.65,648.65,1,Horizontal,-2,475,3.6,0,0,month
05fb1d1f12a54ed2232e95d453,8/20/2019 0:08,9/16/2019 0:47,0,648.65,648.65,1,Horizontal,-4,476,1.465,0,0,month
05fb1d1f12a54ed2232e95d453,8/20/2019 0:08,9/16/2019 0:47,0,648.65,648.65,1,Horizontal,-6,477,4.791,0,0,month
05fb1d1f12a54ed2232e95d453,8/20/2019 0:08,9/16/2019 0:47,0,648.65,648.65,1,Vertical,-10,478,2.375,0,0,month
05fb1d1f12a54ed2232e95d453,8/20/2019 0:08,9/16/2019 0:47,0,648.65,648.65,1,Vertical,10,479,0.866,1,0,month
05fb1d1f12a54ed2232e95d453,8/20/2019 0:08,9/16/2019 0:47,0,648.65,648.65,1,Vertical,-10,480,1.131,0,0,month
12aee48c0c7bbc22cd2b56f302,8/20/2019 5:10,9/16/2019 14:05,0,656.9,656.9,1,Horizontal,10,1,1.112,1,1,month
12aee48c0c7bbc22cd2b56f302,8/20/2019 5:10,9/16/2019 14:05,0,656.9,656.9,1,Horizontal,-6,2,1.002,0,1,month
12aee48c0c7bbc22cd2b56f302,8/20/2019 5:10,9/16/2019 14:05,0,656.9,656.9,1,Horizontal,-10,3,0.823,0,1,month
12aee48c0c7bbc22cd2b56f302,8/20/2019 5:10,9/16/2019 14:05,0,656.9,656.9,1,Vertical,-4,4,1.043,0,1,month
12aee48c0c7bbc22cd2b56f302,8/20/2019 5:10,9/16/2019 14:05,0,656.9,656.9,1,Vertical,10,5,1.053,1,1,month
12aee48c0c7bbc22cd2b56f302,8/20/2019 5:10,9/16/2019 14:05,0,656.9,656.9,1,Vertical,-10,6,0.6,0,1,month
12aee48c0c7bbc22cd2b56f302,8/20/2019 5:10,9/16/2019 14:05,0,656.9,656.9,1,Horizontal,0,7,0.983,0,1,month
12aee48c0c7bbc22cd2b56f302,8/20/2019 5:10,9/16/2019 14:05,0,656.9,656.9,1,Horizontal,-4,8,0.691,0,1,month
12aee48c0c7bbc22cd2b56f302,8/20/2019 5:10,9/16/2019 14:05,0,656.9,656.9,1,Horizontal,-2,9,0.758,0,1,month
12aee48c0c7bbc22cd2b56f302,8/20/2019 5:10,9/16/2019 14:05,0,656.9,656.9,1,Vertical,2,10,1.403,1,1,month
12aee48c0c7bbc22cd2b56f302,8/20/2019 5:10,9/16/2019 14:05,0,656.9,656.9,1,Vertical,-4,11,0.899,0,1,month
12aee48c0c7bbc22cd2b56f302,8/20/2019 5:10,9/16/2019 14:05,0,656.9,656.9,1,Vertical,6,12,0.82,1,1,month
12aee48c0c7bbc22cd2b56f302,8/20/2019 5:10,9/16/2019 14:05,0,656.9,656.9,1,Horizontal,0,13,0.787,0,1,month
12aee48c0c7bbc22cd2b56f302,8/20/2019 5:10,9/16/2019 14:05,0,656.9,656.9,1,Horizontal,-2,14,0.805,0,1,month
12aee48c0c7bbc22cd2b56f302,8/20/2019 5:10,9/16/2019 14:05,0,656.9,656.9,1,Horizontal,10,15,0.488,1,1,month
12aee48c0c7bbc22cd2b56f302,8/20/2019 5:10,9/16/2019 14:05,0,656.9,656.9,1,Vertical,0,16,0.522,0,1,month
12aee48c0c7bbc22cd2b56f302,8/20/2019 5:10,9/16/2019 14:05,0,656.9,656.9,1,Vertical,2,17,1.382,0,1,month
12aee48c0c7bbc22cd2b56f302,8/20/2019 5:10,9/16/2019 14:05,0,656.9,656.9,1,Vertical,-10,18,0.486,0,1,month
12aee48c0c7bbc22cd2b56f302,8/20/2019 5:10,9/16/2019 14:05,0,656.9,656.9,1,Horizontal,4,19,0.563,1,1,month
12aee48c0c7bbc22cd2b56f302,8/20/2019 5:10,9/16/2019 14:05,0,656.9,656.9,1,Horizontal,-8,20,0.565,0,1,month
12aee48c0c7bbc22cd2b56f302,8/20/2019 5:10,9/16/2019 14:05,0,656.9,656.9,1,Horizontal,4,21,0.541,1,1,month
12aee48c0c7bbc22cd2b56f302,8/20/2019 5:10,9/16/2019 14:05,0,656.9,656.9,1,Vertical,6,22,0.8,1,1,month
12aee48c0c7bbc22cd2b56f302,8/20/2019 5:10,9/16/2019 14:05,0,656.9,656.9,1,Vertical,10,23,0.64,1,1,month
12aee48c0c7bbc22cd2b56f302,8/20/2019 5:10,9/16/2019 14:05,0,656.9,656.9,1,Vertical,-2,24,0.436,0,1,month
12aee48c0c7bbc22cd2b56f302,8/20/2019 5:10,9/16/2019 14:05,0,656.9,656.9,1,Horizontal,0,25,3.09,1,1,month
12aee48c0c7bbc22cd2b56f302,8/20/2019 5:10,9/16/2019 14:05,0,656.9,656.9,1,Horizontal,4,26,0.472,1,1,month
12aee48c0c7bbc22cd2b56f302,8/20/2019 5:10,9/16/2019 14:05,0,656.9,656.9,1,Horizontal,-4,27,0.496,0,1,month
12aee48c0c7bbc22cd2b56f302,8/20/2019 5:10,9/16/2019 14:05,0,656.9,656.9,1,Vertical,0,28,1.031,0,1,month
12aee48c0c7bbc22cd2b56f302,8/20/2019 5:10,9/16/2019 14:05,0,656.9,656.9,1,Vertical,-2,29,0.503,0,1,month
12aee48c0c7bbc22cd2b56f302,8/20/2019 5:10,9/16/2019 14:05,0,656.9,656.9,1,Vertical,4,30,0.712,1,1,month
12aee48c0c7bbc22cd2b56f302,8/20/2019 5:10,9/16/2019 14:05,0,656.9,656.9,1,Horizontal,-8,31,2.709,0,1,month
12aee48c0c7bbc22cd2b56f302,8/20/2019 5:10,9/16/2019 14:05,0,656.9,656.9,1,Horizontal,-8,32,1.076,0,1,month
12aee48c0c7bbc22cd2b56f302,8/20/2019 5:10,9/16/2019 14:05,0,656.9,656.9,1,Horizontal,6,33,0.959,1,1,month
12aee48c0c7bbc22cd2b56f302,8/20/2019 5:10,9/16/2019 14:05,0,656.9,656.9,1,Vertical,-10,34,0.546,0,1,month
12aee48c0c7bbc22cd2b56f302,8/20/2019 5:10,9/16/2019 14:05,0,656.9,656.9,1,Vertical,2,35,0.962,1,1,month
12aee48c0c7bbc22cd2b56f302,8/20/2019 5:10,9/16/2019 14:05,0,656.9,656.9,1,Vertical,-2,36,0.521,0,1,month
12aee48c0c7bbc22cd2b56f302,8/20/2019 5:10,9/16/2019 14:05,0,656.9,656.9,1,Horizontal,0,37,0.649,0,1,month
12aee48c0c7bbc22cd2b56f302,8/20/2019 5:10,9/16/2019 14:05,0,656.9,656.9,1,Horizontal,-4,38,0.636,0,1,month
12aee48c0c7bbc22cd2b56f302,8/20/2019 5:10,9/16/2019 14:05,0,656.9,656.9,1,Horizontal,-6,39,0.602,0,1,month
12aee48c0c7bbc22cd2b56f302,8/20/2019 5:10,9/16/2019 14:05,0,656.9,656.9,1,Vertical,0,40,0.527,0,1,month
12aee48c0c7bbc22cd2b56f302,8/20/2019 5:10,9/16/2019 14:05,0,656.9,656.9,1,Vertical,10,41,0.748,1,1,month
12aee48c0c7bbc22cd2b56f302,8/20/2019 5:10,9/16/2019 14:05,0,656.9,656.9,1,Vertical,-4,42,0.605,0,1,month
12aee48c0c7bbc22cd2b56f302,8/20/2019 5:10,9/16/2019 14:05,0,656.9,656.9,1,Horizontal,4,43,0.534,1,1,month
12aee48c0c7bbc22cd2b56f302,8/20/2019 5:10,9/16/2019 14:05,0,656.9,656.9,1,Horizontal,6,44,0.509,1,1,month
12aee48c0c7bbc22cd2b56f302,8/20/2019 5:10,9/16/2019 14:05,0,656.9,656.9,1,Horizontal,10,45,0.488,1,1,month
12aee48c0c7bbc22cd2b56f302,8/20/2019 5:10,9/16/2019 14:05,0,656.9,656.9,1,Vertical,0,46,0.686,0,1,month
12aee48c0c7bbc22cd2b56f302,8/20/2019 5:10,9/16/2019 14:05,0,656.9,656.9,1,Vertical,-8,47,0.481,0,1,month
12aee48c0c7bbc22cd2b56f302,8/20/2019 5:10,9/16/2019 14:05,0,656.9,656.9,1,Vertical,8,48,0.819,1,1,month
12aee48c0c7bbc22cd2b56f302,8/20/2019 5:10,9/16/2019 14:05,0,656.9,656.9,1,Horizontal,0,49,0.834,0,1,month
12aee48c0c7bbc22cd2b56f302,8/20/2019 5:10,9/16/2019 14:05,0,656.9,656.9,1,Horizontal,2,50,1.165,1,1,month
12aee48c0c7bbc22cd2b56f302,8/20/2019 5:10,9/16/2019 14:05,0,656.9,656.9,1,Horizontal,-2,51,0.636,0,1,month
12aee48c0c7bbc22cd2b56f302,8/20/2019 5:10,9/16/2019 14:05,0,656.9,656.9,1,Vertical,4,52,0.859,1,1,month
12aee48c0c7bbc22cd2b56f302,8/20/2019 5:10,9/16/2019 14:05,0,656.9,656.9,1,Vertical,-6,53,0.61,0,1,month
12aee48c0c7bbc22cd2b56f302,8/20/2019 5:10,9/16/2019 14:05,0,656.9,656.9,1,Vertical,4,54,0.739,1,1,month
12aee48c0c7bbc22cd2b56f302,8/20/2019 5:10,9/16/2019 14:05,0,656.9,656.9,1,Horizontal,-2,55,0.641,0,1,month
12aee48c0c7bbc22cd2b56f302,8/20/2019 5:10,9/16/2019 14:05,0,656.9,656.9,1,Horizontal,-8,56,0.604,0,1,month
12aee48c0c7bbc22cd2b56f302,8/20/2019 5:10,9/16/2019 14:05,0,656.9,656.9,1,Horizontal,2,57,1.029,1,1,month
12aee48c0c7bbc22cd2b56f302,8/20/2019 5:10,9/16/2019 14:05,0,656.9,656.9,1,Vertical,0,58,0.628,0,1,month
12aee48c0c7bbc22cd2b56f302,8/20/2019 5:10,9/16/2019 14:05,0,656.9,656.9,1,Vertical,4,59,0.629,1,1,month
12aee48c0c7bbc22cd2b56f302,8/20/2019 5:10,9/16/2019 14:05,0,656.9,656.9,1,Vertical,6,60,1.829,1,1,month
12aee48c0c7bbc22cd2b56f302,8/20/2019 5:10,9/16/2019 14:05,0,656.9,656.9,1,Horizontal,0,61,2.025,1,1,month
12aee48c0c7bbc22cd2b56f302,8/20/2019 5:10,9/16/2019 14:05,0,656.9,656.9,1,Horizontal,6,62,0.5,1,1,month
12aee48c0c7bbc22cd2b56f302,8/20/2019 5:10,9/16/2019 14:05,0,656.9,656.9,1,Horizontal,8,63,0.533,1,1,month
12aee48c0c7bbc22cd2b56f302,8/20/2019 5:10,9/16/2019 14:05,0,656.9,656.9,1,Vertical,0,64,0.793,0,1,month
12aee48c0c7bbc22cd2b56f302,8/20/2019 5:10,9/16/2019 14:05,0,656.9,656.9,1,Vertical,8,65,0.768,1,1,month
12aee48c0c7bbc22cd2b56f302,8/20/2019 5:10,9/16/2019 14:05,0,656.9,656.9,1,Vertical,8,66,0.63,1,1,month
12aee48c0c7bbc22cd2b56f302,8/20/2019 5:10,9/16/2019 14:05,0,656.9,656.9,1,Horizontal,0,67,0.61,0,1,month
12aee48c0c7bbc22cd2b56f302,8/20/2019 5:10,9/16/2019 14:05,0,656.9,656.9,1,Horizontal,-10,68,0.535,0,1,month
12aee48c0c7bbc22cd2b56f302,8/20/2019 5:10,9/16/2019 14:05,0,656.9,656.9,1,Horizontal,10,69,0.482,1,1,month
12aee48c0c7bbc22cd2b56f302,8/20/2019 5:10,9/16/2019 14:05,0,656.9,656.9,1,Vertical,-6,70,0.557,0,1,month
12aee48c0c7bbc22cd2b56f302,8/20/2019 5:10,9/16/2019 14:05,0,656.9,656.9,1,Vertical,-8,71,0.535,0,1,month
12aee48c0c7bbc22cd2b56f302,8/20/2019 5:10,9/16/2019 14:05,0,656.9,656.9,1,Vertical,-2,72,0.472,0,1,month
12aee48c0c7bbc22cd2b56f302,8/20/2019 5:10,9/16/2019 14:05,0,656.9,656.9,1,Horizontal,8,73,0.488,1,1,month
12aee48c0c7bbc22cd2b56f302,8/20/2019 5:10,9/16/2019 14:05,0,656.9,656.9,1,Horizontal,-8,74,0.471,0,1,month
12aee48c0c7bbc22cd2b56f302,8/20/2019 5:10,9/16/2019 14:05,0,656.9,656.9,1,Horizontal,-2,75,0.569,0,1,month
12aee48c0c7bbc22cd2b56f302,8/20/2019 5:10,9/16/2019 14:05,0,656.9,656.9,1,Vertical,0,76,0.977,1,1,month
12aee48c0c7bbc22cd2b56f302,8/20/2019 5:10,9/16/2019 14:05,0,656.9,656.9,1,Vertical,8,77,0.674,1,1,month
12aee48c0c7bbc22cd2b56f302,8/20/2019 5:10,9/16/2019 14:05,0,656.9,656.9,1,Vertical,-8,78,0.571,0,1,month
12aee48c0c7bbc22cd2b56f302,8/20/2019 5:10,9/16/2019 14:05,0,656.9,656.9,1,Horizontal,-6,79,0.59,0,1,month
12aee48c0c7bbc22cd2b56f302,8/20/2019 5:10,9/16/2019 14:05,0,656.9,656.9,1,Horizontal,2,80,0.485,1,1,month
12aee48c0c7bbc22cd2b56f302,8/20/2019 5:10,9/16/2019 14:05,0,656.9,656.9,1,Horizontal,6,81,0.589,1,1,month
12aee48c0c7bbc22cd2b56f302,8/20/2019 5:10,9/16/2019 14:05,0,656.9,656.9,1,Vertical,-10,82,0.519,0,1,month
12aee48c0c7bbc22cd2b56f302,8/20/2019 5:10,9/16/2019 14:05,0,656.9,656.9,1,Vertical,2,83,0.757,1,1,month
12aee48c0c7bbc22cd2b56f302,8/20/2019 5:10,9/16/2019 14:05,0,656.9,656.9,1,Vertical,2,84,0.842,1,1,month
12aee48c0c7bbc22cd2b56f302,8/20/2019 5:10,9/16/2019 14:05,0,656.9,656.9,1,Horizontal,0,85,1.429,1,1,month
12aee48c0c7bbc22cd2b56f302,8/20/2019 5:10,9/16/2019 14:05,0,656.9,656.9,1,Horizontal,8,86,0.54,1,1,month
12aee48c0c7bbc22cd2b56f302,8/20/2019 5:10,9/16/2019 14:05,0,656.9,656.9,1,Horizontal,-4,87,0.692,0,1,month
12aee48c0c7bbc22cd2b56f302,8/20/2019 5:10,9/16/2019 14:05,0,656.9,656.9,1,Vertical,0,88,1.119,0,1,month
12aee48c0c7bbc22cd2b56f302,8/20/2019 5:10,9/16/2019 14:05,0,656.9,656.9,1,Vertical,6,89,0.645,1,1,month
12aee48c0c7bbc22cd2b56f302,8/20/2019 5:10,9/16/2019 14:05,0,656.9,656.9,1,Vertical,6,90,1.056,1,1,month
12aee48c0c7bbc22cd2b56f302,8/20/2019 5:10,9/16/2019 14:05,0,656.9,656.9,1,Horizontal,0,91,2.682,1,1,month
12aee48c0c7bbc22cd2b56f302,8/20/2019 5:10,9/16/2019 14:05,0,656.9,656.9,1,Horizontal,-6,92,0.587,0,1,month
12aee48c0c7bbc22cd2b56f302,8/20/2019 5:10,9/16/2019 14:05,0,656.9,656.9,1,Horizontal,8,93,0.515,1,1,month
12aee48c0c7bbc22cd2b56f302,8/20/2019 5:10,9/16/2019 14:05,0,656.9,656.9,1,Vertical,-6,94,0.771,0,1,month
12aee48c0c7bbc22cd2b56f302,8/20/2019 5:10,9/16/2019 14:05,0,656.9,656.9,1,Vertical,-10,95,0.544,0,1,month
12aee48c0c7bbc22cd2b56f302,8/20/2019 5:10,9/16/2019 14:05,0,656.9,656.9,1,Vertical,-8,96,0.542,0,1,month
12aee48c0c7bbc22cd2b56f302,8/20/2019 5:10,9/16/2019 14:05,0,656.9,656.9,1,Horizontal,-4,97,0.651,0,1,month
12aee48c0c7bbc22cd2b56f302,8/20/2019 5:10,9/16/2019 14:05,0,656.9,656.9,1,Horizontal,-10,98,0.511,0,1,month
12aee48c0c7bbc22cd2b56f302,8/20/2019 5:10,9/16/2019 14:05,0,656.9,656.9,1,Horizontal,2,99,1.074,1,1,month
12aee48c0c7bbc22cd2b56f302,8/20/2019 5:10,9/16/2019 14:05,0,656.9,656.9,1,Vertical,0,100,1.523,0,1,month
12aee48c0c7bbc22cd2b56f302,8/20/2019 5:10,9/16/2019 14:05,0,656.9,656.9,1,Vertical,-4,101,0.494,0,1,month
12aee48c0c7bbc22cd2b56f302,8/20/2019 5:10,9/16/2019 14:05,0,656.9,656.9,1,Vertical,-4,102,0.479,0,1,month
12aee48c0c7bbc22cd2b56f302,8/20/2019 5:10,9/16/2019 14:05,0,656.9,656.9,1,Horizontal,4,103,0.561,1,1,month
12aee48c0c7bbc22cd2b56f302,8/20/2019 5:10,9/16/2019 14:05,0,656.9,656.9,1,Horizontal,-6,104,0.603,0,1,month
12aee48c0c7bbc22cd2b56f302,8/20/2019 5:10,9/16/2019 14:05,0,656.9,656.9,1,Horizontal,-10,105,0.676,0,1,month
12aee48c0c7bbc22cd2b56f302,8/20/2019 5:10,9/16/2019 14:05,0,656.9,656.9,1,Vertical,-6,106,0.561,0,1,month
12aee48c0c7bbc22cd2b56f302,8/20/2019 5:10,9/16/2019 14:05,0,656.9,656.9,1,Vertical,8,107,0.832,1,1,month
12aee48c0c7bbc22cd2b56f302,8/20/2019 5:10,9/16/2019 14:05,0,656.9,656.9,1,Vertical,4,108,1,1,1,month
12aee48c0c7bbc22cd2b56f302,8/20/2019 5:10,9/16/2019 14:05,0,656.9,656.9,1,Horizontal,2,109,0.525,1,1,month
12aee48c0c7bbc22cd2b56f302,8/20/2019 5:10,9/16/2019 14:05,0,656.9,656.9,1,Horizontal,8,110,0.453,1,1,month
12aee48c0c7bbc22cd2b56f302,8/20/2019 5:10,9/16/2019 14:05,0,656.9,656.9,1,Horizontal,-10,111,0.408,0,1,month
12aee48c0c7bbc22cd2b56f302,8/20/2019 5:10,9/16/2019 14:05,0,656.9,656.9,1,Vertical,-8,112,0.534,0,1,month
12aee48c0c7bbc22cd2b56f302,8/20/2019 5:10,9/16/2019 14:05,0,656.9,656.9,1,Vertical,-2,113,0.423,0,1,month
12aee48c0c7bbc22cd2b56f302,8/20/2019 5:10,9/16/2019 14:05,0,656.9,656.9,1,Vertical,-6,114,0.54,0,1,month
12aee48c0c7bbc22cd2b56f302,8/20/2019 5:10,9/16/2019 14:05,0,656.9,656.9,1,Horizontal,0,115,0.814,1,1,month
12aee48c0c7bbc22cd2b56f302,8/20/2019 5:10,9/16/2019 14:05,0,656.9,656.9,1,Horizontal,10,116,0.515,1,1,month
12aee48c0c7bbc22cd2b56f302,8/20/2019 5:10,9/16/2019 14:05,0,656.9,656.9,1,Horizontal,6,117,0.72,1,1,month
12aee48c0c7bbc22cd2b56f302,8/20/2019 5:10,9/16/2019 14:05,0,656.9,656.9,1,Vertical,0,118,1.962,1,1,month
12aee48c0c7bbc22cd2b56f302,8/20/2019 5:10,9/16/2019 14:05,0,656.9,656.9,1,Vertical,10,119,0.735,1,1,month
12aee48c0c7bbc22cd2b56f302,8/20/2019 5:10,9/16/2019 14:05,0,656.9,656.9,1,Vertical,10,120,0.596,1,1,month
12aee48c0c7bbc22cd2b56f302,8/20/2019 5:10,9/16/2019 14:05,0,656.9,656.9,1,Horizontal,6,121,0.881,1,1,month
12aee48c0c7bbc22cd2b56f302,8/20/2019 5:10,9/16/2019 14:05,0,656.9,656.9,1,Horizontal,-2,122,2.121,0,1,month
12aee48c0c7bbc22cd2b56f302,8/20/2019 5:10,9/16/2019 14:05,0,656.9,656.9,1,Horizontal,4,123,0.843,1,1,month
12aee48c0c7bbc22cd2b56f302,8/20/2019 5:10,9/16/2019 14:05,0,656.9,656.9,1,Vertical,0,124,1.063,0,1,month
12aee48c0c7bbc22cd2b56f302,8/20/2019 5:10,9/16/2019 14:05,0,656.9,656.9,1,Vertical,6,125,0.829,1,1,month
12aee48c0c7bbc22cd2b56f302,8/20/2019 5:10,9/16/2019 14:05,0,656.9,656.9,1,Vertical,-6,126,0.505,0,1,month
12aee48c0c7bbc22cd2b56f302,8/20/2019 5:10,9/16/2019 14:05,0,656.9,656.9,1,Horizontal,0,127,0.6,1,1,month
12aee48c0c7bbc22cd2b56f302,8/20/2019 5:10,9/16/2019 14:05,0,656.9,656.9,1,Horizontal,6,128,0.596,1,1,month
12aee48c0c7bbc22cd2b56f302,8/20/2019 5:10,9/16/2019 14:05,0,656.9,656.9,1,Horizontal,6,129,0.549,1,1,month
12aee48c0c7bbc22cd2b56f302,8/20/2019 5:10,9/16/2019 14:05,0,656.9,656.9,1,Vertical,-2,130,0.837,0,1,month
12aee48c0c7bbc22cd2b56f302,8/20/2019 5:10,9/16/2019 14:05,0,656.9,656.9,1,Vertical,6,131,0.855,1,1,month
12aee48c0c7bbc22cd2b56f302,8/20/2019 5:10,9/16/2019 14:05,0,656.9,656.9,1,Vertical,4,132,0.675,1,1,month
12aee48c0c7bbc22cd2b56f302,8/20/2019 5:10,9/16/2019 14:05,0,656.9,656.9,1,Horizontal,0,133,0.531,0,1,month
12aee48c0c7bbc22cd2b56f302,8/20/2019 5:10,9/16/2019 14:05,0,656.9,656.9,1,Horizontal,-2,134,0.772,0,1,month
12aee48c0c7bbc22cd2b56f302,8/20/2019 5:10,9/16/2019 14:05,0,656.9,656.9,1,Horizontal,-4,135,0.656,0,1,month
12aee48c0c7bbc22cd2b56f302,8/20/2019 5:10,9/16/2019 14:05,0,656.9,656.9,1,Vertical,0,136,0.923,0,1,month
12aee48c0c7bbc22cd2b56f302,8/20/2019 5:10,9/16/2019 14:05,0,656.9,656.9,1,Vertical,2,137,0.886,0,1,month
12aee48c0c7bbc22cd2b56f302,8/20/2019 5:10,9/16/2019 14:05,0,656.9,656.9,1,Vertical,10,138,0.673,1,1,month
12aee48c0c7bbc22cd2b56f302,8/20/2019 5:10,9/16/2019 14:05,0,656.9,656.9,1,Horizontal,-6,139,0.597,0,1,month
12aee48c0c7bbc22cd2b56f302,8/20/2019 5:10,9/16/2019 14:05,0,656.9,656.9,1,Horizontal,8,140,0.735,1,1,month
12aee48c0c7bbc22cd2b56f302,8/20/2019 5:10,9/16/2019 14:05,0,656.9,656.9,1,Horizontal,4,141,1.131,1,1,month
12aee48c0c7bbc22cd2b56f302,8/20/2019 5:10,9/16/2019 14:05,0,656.9,656.9,1,Vertical,0,142,0.953,0,1,month
12aee48c0c7bbc22cd2b56f302,8/20/2019 5:10,9/16/2019 14:05,0,656.9,656.9,1,Vertical,-4,143,0.562,0,1,month
12aee48c0c7bbc22cd2b56f302,8/20/2019 5:10,9/16/2019 14:05,0,656.9,656.9,1,Vertical,2,144,1.417,1,1,month
12aee48c0c7bbc22cd2b56f302,8/20/2019 5:10,9/16/2019 14:05,0,656.9,656.9,1,Horizontal,0,145,1.406,1,1,month
12aee48c0c7bbc22cd2b56f302,8/20/2019 5:10,9/16/2019 14:05,0,656.9,656.9,1,Horizontal,2,146,0.647,1,1,month
12aee48c0c7bbc22cd2b56f302,8/20/2019 5:10,9/16/2019 14:05,0,656.9,656.9,1,Horizontal,2,147,0.952,1,1,month
12aee48c0c7bbc22cd2b56f302,8/20/2019 5:10,9/16/2019 14:05,0,656.9,656.9,1,Vertical,-8,148,0.628,0,1,month
12aee48c0c7bbc22cd2b56f302,8/20/2019 5:10,9/16/2019 14:05,0,656.9,656.9,1,Vertical,-10,149,0.562,0,1,month
12aee48c0c7bbc22cd2b56f302,8/20/2019 5:10,9/16/2019 14:05,0,656.9,656.9,1,Vertical,-2,150,0.579,0,1,month
12aee48c0c7bbc22cd2b56f302,8/20/2019 5:10,9/16/2019 14:05,0,656.9,656.9,1,Horizontal,-4,151,1.268,0,1,month
12aee48c0c7bbc22cd2b56f302,8/20/2019 5:10,9/16/2019 14:05,0,656.9,656.9,1,Horizontal,-10,152,0.663,0,1,month
12aee48c0c7bbc22cd2b56f302,8/20/2019 5:10,9/16/2019 14:05,0,656.9,656.9,1,Horizontal,2,153,1.47,1,1,month
12aee48c0c7bbc22cd2b56f302,8/20/2019 5:10,9/16/2019 14:05,0,656.9,656.9,1,Vertical,0,154,1.309,1,1,month
12aee48c0c7bbc22cd2b56f302,8/20/2019 5:10,9/16/2019 14:05,0,656.9,656.9,1,Vertical,-8,155,0.595,0,1,month
12aee48c0c7bbc22cd2b56f302,8/20/2019 5:10,9/16/2019 14:05,0,656.9,656.9,1,Vertical,2,156,1.379,1,1,month
12aee48c0c7bbc22cd2b56f302,8/20/2019 5:10,9/16/2019 14:05,0,656.9,656.9,1,Horizontal,0,157,1.306,1,1,month
12aee48c0c7bbc22cd2b56f302,8/20/2019 5:10,9/16/2019 14:05,0,656.9,656.9,1,Horizontal,4,158,0.681,1,1,month
12aee48c0c7bbc22cd2b56f302,8/20/2019 5:10,9/16/2019 14:05,0,656.9,656.9,1,Horizontal,-2,159,1.027,0,1,month
12aee48c0c7bbc22cd2b56f302,8/20/2019 5:10,9/16/2019 14:05,0,656.9,656.9,1,Vertical,8,160,0.708,1,1,month
12aee48c0c7bbc22cd2b56f302,8/20/2019 5:10,9/16/2019 14:05,0,656.9,656.9,1,Vertical,-6,161,0.835,0,1,month
12aee48c0c7bbc22cd2b56f302,8/20/2019 5:10,9/16/2019 14:05,0,656.9,656.9,1,Vertical,-4,162,0.899,0,1,month
12aee48c0c7bbc22cd2b56f302,8/20/2019 5:10,9/16/2019 14:05,0,656.9,656.9,1,Horizontal,2,163,0.814,1,1,month
12aee48c0c7bbc22cd2b56f302,8/20/2019 5:10,9/16/2019 14:05,0,656.9,656.9,1,Horizontal,8,164,0.564,1,1,month
12aee48c0c7bbc22cd2b56f302,8/20/2019 5:10,9/16/2019 14:05,0,656.9,656.9,1,Horizontal,-8,165,0.522,0,1,month
12aee48c0c7bbc22cd2b56f302,8/20/2019 5:10,9/16/2019 14:05,0,656.9,656.9,1,Vertical,-10,166,0.504,0,1,month
12aee48c0c7bbc22cd2b56f302,8/20/2019 5:10,9/16/2019 14:05,0,656.9,656.9,1,Vertical,10,167,0.77,1,1,month
12aee48c0c7bbc22cd2b56f302,8/20/2019 5:10,9/16/2019 14:05,0,656.9,656.9,1,Vertical,-4,168,0.494,0,1,month
12aee48c0c7bbc22cd2b56f302,8/20/2019 5:10,9/16/2019 14:05,0,656.9,656.9,1,Horizontal,8,169,0.558,1,1,month
12aee48c0c7bbc22cd2b56f302,8/20/2019 5:10,9/16/2019 14:05,0,656.9,656.9,1,Horizontal,8,170,0.482,1,1,month
12aee48c0c7bbc22cd2b56f302,8/20/2019 5:10,9/16/2019 14:05,0,656.9,656.9,1,Horizontal,-8,171,0.543,0,1,month
12aee48c0c7bbc22cd2b56f302,8/20/2019 5:10,9/16/2019 14:05,0,656.9,656.9,1,Vertical,0,172,1.076,0,1,month
12aee48c0c7bbc22cd2b56f302,8/20/2019 5:10,9/16/2019 14:05,0,656.9,656.9,1,Vertical,8,173,0.646,1,1,month
12aee48c0c7bbc22cd2b56f302,8/20/2019 5:10,9/16/2019 14:05,0,656.9,656.9,1,Vertical,-2,174,0.533,0,1,month
12aee48c0c7bbc22cd2b56f302,8/20/2019 5:10,9/16/2019 14:05,0,656.9,656.9,1,Horizontal,0,175,0.719,1,1,month
12aee48c0c7bbc22cd2b56f302,8/20/2019 5:10,9/16/2019 14:05,0,656.9,656.9,1,Horizontal,-8,176,0.515,0,1,month
12aee48c0c7bbc22cd2b56f302,8/20/2019 5:10,9/16/2019 14:05,0,656.9,656.9,1,Horizontal,-4,177,0.676,0,1,month
12aee48c0c7bbc22cd2b56f302,8/20/2019 5:10,9/16/2019 14:05,0,656.9,656.9,1,Vertical,8,178,0.665,1,1,month
12aee48c0c7bbc22cd2b56f302,8/20/2019 5:10,9/16/2019 14:05,0,656.9,656.9,1,Vertical,-8,179,0.571,0,1,month
12aee48c0c7bbc22cd2b56f302,8/20/2019 5:10,9/16/2019 14:05,0,656.9,656.9,1,Vertical,2,180,0.555,1,1,month
12aee48c0c7bbc22cd2b56f302,8/20/2019 5:10,9/16/2019 14:05,0,656.9,656.9,1,Horizontal,10,181,0.976,1,1,month
12aee48c0c7bbc22cd2b56f302,8/20/2019 5:10,9/16/2019 14:05,0,656.9,656.9,1,Horizontal,-6,182,0.611,0,1,month
12aee48c0c7bbc22cd2b56f302,8/20/2019 5:10,9/16/2019 14:05,0,656.9,656.9,1,Horizontal,4,183,0.67,1,1,month
12aee48c0c7bbc22cd2b56f302,8/20/2019 5:10,9/16/2019 14:05,0,656.9,656.9,1,Vertical,-6,184,0.81,0,1,month
12aee48c0c7bbc22cd2b56f302,8/20/2019 5:10,9/16/2019 14:05,0,656.9,656.9,1,Vertical,-6,185,0.68,0,1,month
12aee48c0c7bbc22cd2b56f302,8/20/2019 5:10,9/16/2019 14:05,0,656.9,656.9,1,Vertical,-10,186,0.471,0,1,month
12aee48c0c7bbc22cd2b56f302,8/20/2019 5:10,9/16/2019 14:05,0,656.9,656.9,1,Horizontal,8,187,0.49,1,1,month
12aee48c0c7bbc22cd2b56f302,8/20/2019 5:10,9/16/2019 14:05,0,656.9,656.9,1,Horizontal,-6,188,0.64,0,1,month
12aee48c0c7bbc22cd2b56f302,8/20/2019 5:10,9/16/2019 14:05,0,656.9,656.9,1,Horizontal,-6,189,0.789,0,1,month
12aee48c0c7bbc22cd2b56f302,8/20/2019 5:10,9/16/2019 14:05,0,656.9,656.9,1,Vertical,0,190,0.985,0,1,month
12aee48c0c7bbc22cd2b56f302,8/20/2019 5:10,9/16/2019 14:05,0,656.9,656.9,1,Vertical,6,191,0.644,1,1,month
12aee48c0c7bbc22cd2b56f302,8/20/2019 5:10,9/16/2019 14:05,0,656.9,656.9,1,Vertical,10,192,0.641,1,1,month
12aee48c0c7bbc22cd2b56f302,8/20/2019 5:10,9/16/2019 14:05,0,656.9,656.9,1,Horizontal,0,193,7.431,1,1,month
12aee48c0c7bbc22cd2b56f302,8/20/2019 5:10,9/16/2019 14:05,0,656.9,656.9,1,Horizontal,6,194,0.616,1,1,month
12aee48c0c7bbc22cd2b56f302,8/20/2019 5:10,9/16/2019 14:05,0,656.9,656.9,1,Horizontal,2,195,0.529,1,1,month
12aee48c0c7bbc22cd2b56f302,8/20/2019 5:10,9/16/2019 14:05,0,656.9,656.9,1,Vertical,-8,196,0.616,0,1,month
12aee48c0c7bbc22cd2b56f302,8/20/2019 5:10,9/16/2019 14:05,0,656.9,656.9,1,Vertical,-4,197,0.534,0,1,month
12aee48c0c7bbc22cd2b56f302,8/20/2019 5:10,9/16/2019 14:05,0,656.9,656.9,1,Vertical,8,198,1.309,1,1,month
12aee48c0c7bbc22cd2b56f302,8/20/2019 5:10,9/16/2019 14:05,0,656.9,656.9,1,Horizontal,0,199,1.118,1,1,month
12aee48c0c7bbc22cd2b56f302,8/20/2019 5:10,9/16/2019 14:05,0,656.9,656.9,1,Horizontal,-10,200,0.51,0,1,month
12aee48c0c7bbc22cd2b56f302,8/20/2019 5:10,9/16/2019 14:05,0,656.9,656.9,1,Horizontal,-8,201,0.571,0,1,month
12aee48c0c7bbc22cd2b56f302,8/20/2019 5:10,9/16/2019 14:05,0,656.9,656.9,1,Vertical,-8,202,0.736,0,1,month
12aee48c0c7bbc22cd2b56f302,8/20/2019 5:10,9/16/2019 14:05,0,656.9,656.9,1,Vertical,4,203,0.726,1,1,month
12aee48c0c7bbc22cd2b56f302,8/20/2019 5:10,9/16/2019 14:05,0,656.9,656.9,1,Vertical,4,204,0.854,1,1,month
12aee48c0c7bbc22cd2b56f302,8/20/2019 5:10,9/16/2019 14:05,0,656.9,656.9,1,Horizontal,0,205,1.442,1,1,month
12aee48c0c7bbc22cd2b56f302,8/20/2019 5:10,9/16/2019 14:05,0,656.9,656.9,1,Horizontal,10,206,0.539,1,1,month
12aee48c0c7bbc22cd2b56f302,8/20/2019 5:10,9/16/2019 14:05,0,656.9,656.9,1,Horizontal,-2,207,0.669,0,1,month
12aee48c0c7bbc22cd2b56f302,8/20/2019 5:10,9/16/2019 14:05,0,656.9,656.9,1,Vertical,0,208,1.136,0,1,month
12aee48c0c7bbc22cd2b56f302,8/20/2019 5:10,9/16/2019 14:05,0,656.9,656.9,1,Vertical,4,209,0.798,1,1,month
12aee48c0c7bbc22cd2b56f302,8/20/2019 5:10,9/16/2019 14:05,0,656.9,656.9,1,Vertical,8,210,0.529,1,1,month
12aee48c0c7bbc22cd2b56f302,8/20/2019 5:10,9/16/2019 14:05,0,656.9,656.9,1,Horizontal,6,211,1.753,1,1,month
12aee48c0c7bbc22cd2b56f302,8/20/2019 5:10,9/16/2019 14:05,0,656.9,656.9,1,Horizontal,-8,212,0.642,0,1,month
12aee48c0c7bbc22cd2b56f302,8/20/2019 5:10,9/16/2019 14:05,0,656.9,656.9,1,Horizontal,-10,213,0.87,0,1,month
12aee48c0c7bbc22cd2b56f302,8/20/2019 5:10,9/16/2019 14:05,0,656.9,656.9,1,Vertical,0,214,1.165,0,1,month
12aee48c0c7bbc22cd2b56f302,8/20/2019 5:10,9/16/2019 14:05,0,656.9,656.9,1,Vertical,10,215,0.602,1,1,month
12aee48c0c7bbc22cd2b56f302,8/20/2019 5:10,9/16/2019 14:05,0,656.9,656.9,1,Vertical,4,216,1.051,1,1,month
12aee48c0c7bbc22cd2b56f302,8/20/2019 5:10,9/16/2019 14:05,0,656.9,656.9,1,Horizontal,0,217,1.269,1,1,month
12aee48c0c7bbc22cd2b56f302,8/20/2019 5:10,9/16/2019 14:05,0,656.9,656.9,1,Horizontal,-4,218,0.566,0,1,month
12aee48c0c7bbc22cd2b56f302,8/20/2019 5:10,9/16/2019 14:05,0,656.9,656.9,1,Horizontal,10,219,0.552,1,1,month
12aee48c0c7bbc22cd2b56f302,8/20/2019 5:10,9/16/2019 14:05,0,656.9,656.9,1,Vertical,2,220,1.96,0,1,month
12aee48c0c7bbc22cd2b56f302,8/20/2019 5:10,9/16/2019 14:05,0,656.9,656.9,1,Vertical,-4,221,0.862,0,1,month
12aee48c0c7bbc22cd2b56f302,8/20/2019 5:10,9/16/2019 14:05,0,656.9,656.9,1,Vertical,-2,222,0.665,0,1,month
12aee48c0c7bbc22cd2b56f302,8/20/2019 5:10,9/16/2019 14:05,0,656.9,656.9,1,Horizontal,0,223,1.103,1,1,month
12aee48c0c7bbc22cd2b56f302,8/20/2019 5:10,9/16/2019 14:05,0,656.9,656.9,1,Horizontal,10,224,3.536,1,1,month
12aee48c0c7bbc22cd2b56f302,8/20/2019 5:10,9/16/2019 14:05,0,656.9,656.9,1,Horizontal,-10,225,0.591,0,1,month
12aee48c0c7bbc22cd2b56f302,8/20/2019 5:10,9/16/2019 14:05,0,656.9,656.9,1,Vertical,0,226,1.095,0,1,month
12aee48c0c7bbc22cd2b56f302,8/20/2019 5:10,9/16/2019 14:05,0,656.9,656.9,1,Vertical,6,227,0.848,1,1,month
12aee48c0c7bbc22cd2b56f302,8/20/2019 5:10,9/16/2019 14:05,0,656.9,656.9,1,Vertical,6,228,0.713,1,1,month
12aee48c0c7bbc22cd2b56f302,8/20/2019 5:10,9/16/2019 14:05,0,656.9,656.9,1,Horizontal,-10,229,0.564,0,1,month
12aee48c0c7bbc22cd2b56f302,8/20/2019 5:10,9/16/2019 14:05,0,656.9,656.9,1,Horizontal,10,230,0.481,1,1,month
12aee48c0c7bbc22cd2b56f302,8/20/2019 5:10,9/16/2019 14:05,0,656.9,656.9,1,Horizontal,4,231,0.516,1,1,month
12aee48c0c7bbc22cd2b56f302,8/20/2019 5:10,9/16/2019 14:05,0,656.9,656.9,1,Vertical,0,232,0.858,1,1,month
12aee48c0c7bbc22cd2b56f302,8/20/2019 5:10,9/16/2019 14:05,0,656.9,656.9,1,Vertical,-6,233,0.624,0,1,month
12aee48c0c7bbc22cd2b56f302,8/20/2019 5:10,9/16/2019 14:05,0,656.9,656.9,1,Vertical,-2,234,0.538,0,1,month
12aee48c0c7bbc22cd2b56f302,8/20/2019 5:10,9/16/2019 14:05,0,656.9,656.9,1,Horizontal,-2,235,0.979,0,1,month
12aee48c0c7bbc22cd2b56f302,8/20/2019 5:10,9/16/2019 14:05,0,656.9,656.9,1,Horizontal,-4,236,0.736,0,1,month
12aee48c0c7bbc22cd2b56f302,8/20/2019 5:10,9/16/2019 14:05,0,656.9,656.9,1,Horizontal,-6,237,0.586,0,1,month
12aee48c0c7bbc22cd2b56f302,8/20/2019 5:10,9/16/2019 14:05,0,656.9,656.9,1,Vertical,-10,238,0.572,0,1,month
12aee48c0c7bbc22cd2b56f302,8/20/2019 5:10,9/16/2019 14:05,0,656.9,656.9,1,Vertical,10,239,0.635,1,1,month
12aee48c0c7bbc22cd2b56f302,8/20/2019 5:10,9/16/2019 14:05,0,656.9,656.9,1,Vertical,-10,240,0.532,0,1,month
12aee48c0c7bbc22cd2b56f302,8/20/2019 5:10,9/16/2019 14:05,0,656.9,656.9,1,Horizontal,10,241,1.292,1,1,month
12aee48c0c7bbc22cd2b56f302,8/20/2019 5:10,9/16/2019 14:05,0,656.9,656.9,1,Horizontal,-6,242,0.831,0,1,month
12aee48c0c7bbc22cd2b56f302,8/20/2019 5:10,9/16/2019 14:05,0,656.9,656.9,1,Horizontal,-10,243,0.561,0,1,month
12aee48c0c7bbc22cd2b56f302,8/20/2019 5:10,9/16/2019 14:05,0,656.9,656.9,1,Vertical,-4,244,1.434,0,1,month
12aee48c0c7bbc22cd2b56f302,8/20/2019 5:10,9/16/2019 14:05,0,656.9,656.9,1,Vertical,10,245,0.688,1,1,month
12aee48c0c7bbc22cd2b56f302,8/20/2019 5:10,9/16/2019 14:05,0,656.9,656.9,1,Vertical,-10,246,0.458,0,1,month
12aee48c0c7bbc22cd2b56f302,8/20/2019 5:10,9/16/2019 14:05,0,656.9,656.9,1,Horizontal,0,247,1.384,1,1,month
12aee48c0c7bbc22cd2b56f302,8/20/2019 5:10,9/16/2019 14:05,0,656.9,656.9,1,Horizontal,-4,248,0.578,0,1,month
12aee48c0c7bbc22cd2b56f302,8/20/2019 5:10,9/16/2019 14:05,0,656.9,656.9,1,Horizontal,-2,249,0.592,0,1,month
12aee48c0c7bbc22cd2b56f302,8/20/2019 5:10,9/16/2019 14:05,0,656.9,656.9,1,Vertical,2,250,0.57,1,1,month
12aee48c0c7bbc22cd2b56f302,8/20/2019 5:10,9/16/2019 14:05,0,656.9,656.9,1,Vertical,-4,251,0.567,0,1,month
12aee48c0c7bbc22cd2b56f302,8/20/2019 5:10,9/16/2019 14:05,0,656.9,656.9,1,Vertical,6,252,0.627,1,1,month
12aee48c0c7bbc22cd2b56f302,8/20/2019 5:10,9/16/2019 14:05,0,656.9,656.9,1,Horizontal,0,253,0.652,1,1,month
12aee48c0c7bbc22cd2b56f302,8/20/2019 5:10,9/16/2019 14:05,0,656.9,656.9,1,Horizontal,-2,254,0.666,0,1,month
12aee48c0c7bbc22cd2b56f302,8/20/2019 5:10,9/16/2019 14:05,0,656.9,656.9,1,Horizontal,10,255,0.524,1,1,month
12aee48c0c7bbc22cd2b56f302,8/20/2019 5:10,9/16/2019 14:05,0,656.9,656.9,1,Vertical,0,256,0.772,0,1,month
12aee48c0c7bbc22cd2b56f302,8/20/2019 5:10,9/16/2019 14:05,0,656.9,656.9,1,Vertical,2,257,0.705,1,1,month
12aee48c0c7bbc22cd2b56f302,8/20/2019 5:10,9/16/2019 14:05,0,656.9,656.9,1,Vertical,-10,258,0.48,0,1,month
12aee48c0c7bbc22cd2b56f302,8/20/2019 5:10,9/16/2019 14:05,0,656.9,656.9,1,Horizontal,4,259,0.568,1,1,month
12aee48c0c7bbc22cd2b56f302,8/20/2019 5:10,9/16/2019 14:05,0,656.9,656.9,1,Horizontal,-8,260,0.48,0,1,month
12aee48c0c7bbc22cd2b56f302,8/20/2019 5:10,9/16/2019 14:05,0,656.9,656.9,1,Horizontal,4,261,0.51,1,1,month
12aee48c0c7bbc22cd2b56f302,8/20/2019 5:10,9/16/2019 14:05,0,656.9,656.9,1,Vertical,6,262,0.753,1,1,month
12aee48c0c7bbc22cd2b56f302,8/20/2019 5:10,9/16/2019 14:05,0,656.9,656.9,1,Vertical,10,263,0.517,1,1,month
12aee48c0c7bbc22cd2b56f302,8/20/2019 5:10,9/16/2019 14:05,0,656.9,656.9,1,Vertical,-2,264,0.524,0,1,month
12aee48c0c7bbc22cd2b56f302,8/20/2019 5:10,9/16/2019 14:05,0,656.9,656.9,1,Horizontal,0,265,0.91,1,1,month
12aee48c0c7bbc22cd2b56f302,8/20/2019 5:10,9/16/2019 14:05,0,656.9,656.9,1,Horizontal,4,266,0.584,1,1,month
12aee48c0c7bbc22cd2b56f302,8/20/2019 5:10,9/16/2019 14:05,0,656.9,656.9,1,Horizontal,-4,267,0.608,0,1,month
12aee48c0c7bbc22cd2b56f302,8/20/2019 5:10,9/16/2019 14:05,0,656.9,656.9,1,Vertical,0,268,0.97,0,1,month
12aee48c0c7bbc22cd2b56f302,8/20/2019 5:10,9/16/2019 14:05,0,656.9,656.9,1,Vertical,-2,269,0.589,0,1,month
12aee48c0c7bbc22cd2b56f302,8/20/2019 5:10,9/16/2019 14:05,0,656.9,656.9,1,Vertical,4,270,0.641,1,1,month
12aee48c0c7bbc22cd2b56f302,8/20/2019 5:10,9/16/2019 14:05,0,656.9,656.9,1,Horizontal,-8,271,1.607,0,1,month
12aee48c0c7bbc22cd2b56f302,8/20/2019 5:10,9/16/2019 14:05,0,656.9,656.9,1,Horizontal,-8,272,0.547,0,1,month
12aee48c0c7bbc22cd2b56f302,8/20/2019 5:10,9/16/2019 14:05,0,656.9,656.9,1,Horizontal,6,273,0.537,1,1,month
12aee48c0c7bbc22cd2b56f302,8/20/2019 5:10,9/16/2019 14:05,0,656.9,656.9,1,Vertical,-10,274,0.52,0,1,month
12aee48c0c7bbc22cd2b56f302,8/20/2019 5:10,9/16/2019 14:05,0,656.9,656.9,1,Vertical,2,275,0.986,1,1,month
12aee48c0c7bbc22cd2b56f302,8/20/2019 5:10,9/16/2019 14:05,0,656.9,656.9,1,Vertical,-2,276,1.144,0,1,month
12aee48c0c7bbc22cd2b56f302,8/20/2019 5:10,9/16/2019 14:05,0,656.9,656.9,1,Horizontal,0,277,0.566,1,1,month
12aee48c0c7bbc22cd2b56f302,8/20/2019 5:10,9/16/2019 14:05,0,656.9,656.9,1,Horizontal,-4,278,0.58,0,1,month
12aee48c0c7bbc22cd2b56f302,8/20/2019 5:10,9/16/2019 14:05,0,656.9,656.9,1,Horizontal,-6,279,0.48,0,1,month
12aee48c0c7bbc22cd2b56f302,8/20/2019 5:10,9/16/2019 14:05,0,656.9,656.9,1,Vertical,0,280,0.65,0,1,month
12aee48c0c7bbc22cd2b56f302,8/20/2019 5:10,9/16/2019 14:05,0,656.9,656.9,1,Vertical,10,281,0.552,1,1,month
12aee48c0c7bbc22cd2b56f302,8/20/2019 5:10,9/16/2019 14:05,0,656.9,656.9,1,Vertical,-4,282,0.632,0,1,month
12aee48c0c7bbc22cd2b56f302,8/20/2019 5:10,9/16/2019 14:05,0,656.9,656.9,1,Horizontal,4,283,0.602,1,1,month
12aee48c0c7bbc22cd2b56f302,8/20/2019 5:10,9/16/2019 14:05,0,656.9,656.9,1,Horizontal,6,284,0.396,1,1,month
12aee48c0c7bbc22cd2b56f302,8/20/2019 5:10,9/16/2019 14:05,0,656.9,656.9,1,Horizontal,10,285,0.443,1,1,month
12aee48c0c7bbc22cd2b56f302,8/20/2019 5:10,9/16/2019 14:05,0,656.9,656.9,1,Vertical,0,286,0.829,0,1,month
12aee48c0c7bbc22cd2b56f302,8/20/2019 5:10,9/16/2019 14:05,0,656.9,656.9,1,Vertical,-8,287,0.423,0,1,month
12aee48c0c7bbc22cd2b56f302,8/20/2019 5:10,9/16/2019 14:05,0,656.9,656.9,1,Vertical,8,288,0.633,1,1,month
12aee48c0c7bbc22cd2b56f302,8/20/2019 5:10,9/16/2019 14:05,0,656.9,656.9,1,Horizontal,0,289,0.509,1,1,month
12aee48c0c7bbc22cd2b56f302,8/20/2019 5:10,9/16/2019 14:05,0,656.9,656.9,1,Horizontal,2,290,0.514,1,1,month
12aee48c0c7bbc22cd2b56f302,8/20/2019 5:10,9/16/2019 14:05,0,656.9,656.9,1,Horizontal,-2,291,1.018,0,1,month
12aee48c0c7bbc22cd2b56f302,8/20/2019 5:10,9/16/2019 14:05,0,656.9,656.9,1,Vertical,4,292,0.779,1,1,month
12aee48c0c7bbc22cd2b56f302,8/20/2019 5:10,9/16/2019 14:05,0,656.9,656.9,1,Vertical,-6,293,0.605,0,1,month
12aee48c0c7bbc22cd2b56f302,8/20/2019 5:10,9/16/2019 14:05,0,656.9,656.9,1,Vertical,4,294,0.666,1,1,month
12aee48c0c7bbc22cd2b56f302,8/20/2019 5:10,9/16/2019 14:05,0,656.9,656.9,1,Horizontal,-2,295,0.971,0,1,month
12aee48c0c7bbc22cd2b56f302,8/20/2019 5:10,9/16/2019 14:05,0,656.9,656.9,1,Horizontal,-8,296,0.51,0,1,month
12aee48c0c7bbc22cd2b56f302,8/20/2019 5:10,9/16/2019 14:05,0,656.9,656.9,1,Horizontal,2,297,0.549,1,1,month
12aee48c0c7bbc22cd2b56f302,8/20/2019 5:10,9/16/2019 14:05,0,656.9,656.9,1,Vertical,0,298,0.609,0,1,month
12aee48c0c7bbc22cd2b56f302,8/20/2019 5:10,9/16/2019 14:05,0,656.9,656.9,1,Vertical,4,299,0.592,1,1,month
12aee48c0c7bbc22cd2b56f302,8/20/2019 5:10,9/16/2019 14:05,0,656.9,656.9,1,Vertical,6,300,0.616,1,1,month
12aee48c0c7bbc22cd2b56f302,8/20/2019 5:10,9/16/2019 14:05,0,656.9,656.9,1,Horizontal,0,301,3.967,0,1,month
12aee48c0c7bbc22cd2b56f302,8/20/2019 5:10,9/16/2019 14:05,0,656.9,656.9,1,Horizontal,6,302,0.938,1,1,month
12aee48c0c7bbc22cd2b56f302,8/20/2019 5:10,9/16/2019 14:05,0,656.9,656.9,1,Horizontal,8,303,0.538,1,1,month
12aee48c0c7bbc22cd2b56f302,8/20/2019 5:10,9/16/2019 14:05,0,656.9,656.9,1,Vertical,0,304,1.245,0,1,month
12aee48c0c7bbc22cd2b56f302,8/20/2019 5:10,9/16/2019 14:05,0,656.9,656.9,1,Vertical,8,305,1.214,1,1,month
12aee48c0c7bbc22cd2b56f302,8/20/2019 5:10,9/16/2019 14:05,0,656.9,656.9,1,Vertical,8,306,0.537,1,1,month
12aee48c0c7bbc22cd2b56f302,8/20/2019 5:10,9/16/2019 14:05,0,656.9,656.9,1,Horizontal,0,307,1.176,1,1,month
12aee48c0c7bbc22cd2b56f302,8/20/2019 5:10,9/16/2019 14:05,0,656.9,656.9,1,Horizontal,-10,308,0.583,0,1,month
12aee48c0c7bbc22cd2b56f302,8/20/2019 5:10,9/16/2019 14:05,0,656.9,656.9,1,Horizontal,10,309,0.69,1,1,month
12aee48c0c7bbc22cd2b56f302,8/20/2019 5:10,9/16/2019 14:05,0,656.9,656.9,1,Vertical,-6,310,0.785,0,1,month
12aee48c0c7bbc22cd2b56f302,8/20/2019 5:10,9/16/2019 14:05,0,656.9,656.9,1,Vertical,-8,311,1.638,0,1,month
12aee48c0c7bbc22cd2b56f302,8/20/2019 5:10,9/16/2019 14:05,0,656.9,656.9,1,Vertical,-2,312,1.098,0,1,month
12aee48c0c7bbc22cd2b56f302,8/20/2019 5:10,9/16/2019 14:05,0,656.9,656.9,1,Horizontal,8,313,0.708,1,1,month
12aee48c0c7bbc22cd2b56f302,8/20/2019 5:10,9/16/2019 14:05,0,656.9,656.9,1,Horizontal,-8,314,0.449,0,1,month
12aee48c0c7bbc22cd2b56f302,8/20/2019 5:10,9/16/2019 14:05,0,656.9,656.9,1,Horizontal,-2,315,0.369,0,1,month
12aee48c0c7bbc22cd2b56f302,8/20/2019 5:10,9/16/2019 14:05,0,656.9,656.9,1,Vertical,0,316,0.708,0,1,month
12aee48c0c7bbc22cd2b56f302,8/20/2019 5:10,9/16/2019 14:05,0,656.9,656.9,1,Vertical,8,317,0.692,1,1,month
12aee48c0c7bbc22cd2b56f302,8/20/2019 5:10,9/16/2019 14:05,0,656.9,656.9,1,Vertical,-8,318,0.453,0,1,month
12aee48c0c7bbc22cd2b56f302,8/20/2019 5:10,9/16/2019 14:05,0,656.9,656.9,1,Horizontal,-6,319,0.531,0,1,month
12aee48c0c7bbc22cd2b56f302,8/20/2019 5:10,9/16/2019 14:05,0,656.9,656.9,1,Horizontal,2,320,0.561,1,1,month
12aee48c0c7bbc22cd2b56f302,8/20/2019 5:10,9/16/2019 14:05,0,656.9,656.9,1,Horizontal,6,321,0.618,1,1,month
12aee48c0c7bbc22cd2b56f302,8/20/2019 5:10,9/16/2019 14:05,0,656.9,656.9,1,Vertical,-10,322,0.577,0,1,month
12aee48c0c7bbc22cd2b56f302,8/20/2019 5:10,9/16/2019 14:05,0,656.9,656.9,1,Vertical,2,323,0.556,0,1,month
12aee48c0c7bbc22cd2b56f302,8/20/2019 5:10,9/16/2019 14:05,0,656.9,656.9,1,Vertical,2,324,0.883,0,1,month
12aee48c0c7bbc22cd2b56f302,8/20/2019 5:10,9/16/2019 14:05,0,656.9,656.9,1,Horizontal,0,325,1.084,1,1,month
12aee48c0c7bbc22cd2b56f302,8/20/2019 5:10,9/16/2019 14:05,0,656.9,656.9,1,Horizontal,8,326,0.525,1,1,month
12aee48c0c7bbc22cd2b56f302,8/20/2019 5:10,9/16/2019 14:05,0,656.9,656.9,1,Horizontal,-4,327,0.831,0,1,month
12aee48c0c7bbc22cd2b56f302,8/20/2019 5:10,9/16/2019 14:05,0,656.9,656.9,1,Vertical,0,328,2.066,0,1,month
12aee48c0c7bbc22cd2b56f302,8/20/2019 5:10,9/16/2019 14:05,0,656.9,656.9,1,Vertical,6,329,0.643,1,1,month
12aee48c0c7bbc22cd2b56f302,8/20/2019 5:10,9/16/2019 14:05,0,656.9,656.9,1,Vertical,6,330,0.602,1,1,month
12aee48c0c7bbc22cd2b56f302,8/20/2019 5:10,9/16/2019 14:05,0,656.9,656.9,1,Horizontal,0,331,2.792,1,1,month
12aee48c0c7bbc22cd2b56f302,8/20/2019 5:10,9/16/2019 14:05,0,656.9,656.9,1,Horizontal,-6,332,0.566,0,1,month
12aee48c0c7bbc22cd2b56f302,8/20/2019 5:10,9/16/2019 14:05,0,656.9,656.9,1,Horizontal,8,333,0.439,1,1,month
12aee48c0c7bbc22cd2b56f302,8/20/2019 5:10,9/16/2019 14:05,0,656.9,656.9,1,Vertical,-6,334,0.544,0,1,month
12aee48c0c7bbc22cd2b56f302,8/20/2019 5:10,9/16/2019 14:05,0,656.9,656.9,1,Vertical,-10,335,0.495,0,1,month
12aee48c0c7bbc22cd2b56f302,8/20/2019 5:10,9/16/2019 14:05,0,656.9,656.9,1,Vertical,-8,336,0.434,0,1,month
12aee48c0c7bbc22cd2b56f302,8/20/2019 5:10,9/16/2019 14:05,0,656.9,656.9,1,Horizontal,-4,337,0.558,0,1,month
12aee48c0c7bbc22cd2b56f302,8/20/2019 5:10,9/16/2019 14:05,0,656.9,656.9,1,Horizontal,-10,338,0.455,0,1,month
12aee48c0c7bbc22cd2b56f302,8/20/2019 5:10,9/16/2019 14:05,0,656.9,656.9,1,Horizontal,2,339,0.534,1,1,month
12aee48c0c7bbc22cd2b56f302,8/20/2019 5:10,9/16/2019 14:05,0,656.9,656.9,1,Vertical,0,340,0.456,0,1,month
12aee48c0c7bbc22cd2b56f302,8/20/2019 5:10,9/16/2019 14:05,0,656.9,656.9,1,Vertical,-4,341,0.528,0,1,month
12aee48c0c7bbc22cd2b56f302,8/20/2019 5:10,9/16/2019 14:05,0,656.9,656.9,1,Vertical,-4,342,0.432,0,1,month
12aee48c0c7bbc22cd2b56f302,8/20/2019 5:10,9/16/2019 14:05,0,656.9,656.9,1,Horizontal,4,343,0.432,1,1,month
12aee48c0c7bbc22cd2b56f302,8/20/2019 5:10,9/16/2019 14:05,0,656.9,656.9,1,Horizontal,-6,344,0.548,0,1,month
12aee48c0c7bbc22cd2b56f302,8/20/2019 5:10,9/16/2019 14:05,0,656.9,656.9,1,Horizontal,-10,345,0.408,0,1,month
12aee48c0c7bbc22cd2b56f302,8/20/2019 5:10,9/16/2019 14:05,0,656.9,656.9,1,Vertical,-6,346,0.729,0,1,month
12aee48c0c7bbc22cd2b56f302,8/20/2019 5:10,9/16/2019 14:05,0,656.9,656.9,1,Vertical,8,347,0.709,1,1,month
12aee48c0c7bbc22cd2b56f302,8/20/2019 5:10,9/16/2019 14:05,0,656.9,656.9,1,Vertical,4,348,0.753,1,1,month
12aee48c0c7bbc22cd2b56f302,8/20/2019 5:10,9/16/2019 14:05,0,656.9,656.9,1,Horizontal,2,349,0.522,1,1,month
12aee48c0c7bbc22cd2b56f302,8/20/2019 5:10,9/16/2019 14:05,0,656.9,656.9,1,Horizontal,8,350,0.757,1,1,month
12aee48c0c7bbc22cd2b56f302,8/20/2019 5:10,9/16/2019 14:05,0,656.9,656.9,1,Horizontal,-10,351,0.473,0,1,month
12aee48c0c7bbc22cd2b56f302,8/20/2019 5:10,9/16/2019 14:05,0,656.9,656.9,1,Vertical,-8,352,0.63,0,1,month
12aee48c0c7bbc22cd2b56f302,8/20/2019 5:10,9/16/2019 14:05,0,656.9,656.9,1,Vertical,-2,353,0.5,0,1,month
12aee48c0c7bbc22cd2b56f302,8/20/2019 5:10,9/16/2019 14:05,0,656.9,656.9,1,Vertical,-6,354,0.499,0,1,month
12aee48c0c7bbc22cd2b56f302,8/20/2019 5:10,9/16/2019 14:05,0,656.9,656.9,1,Horizontal,0,355,1.593,1,1,month
12aee48c0c7bbc22cd2b56f302,8/20/2019 5:10,9/16/2019 14:05,0,656.9,656.9,1,Horizontal,10,356,0.49,1,1,month
12aee48c0c7bbc22cd2b56f302,8/20/2019 5:10,9/16/2019 14:05,0,656.9,656.9,1,Horizontal,6,357,0.453,1,1,month
12aee48c0c7bbc22cd2b56f302,8/20/2019 5:10,9/16/2019 14:05,0,656.9,656.9,1,Vertical,0,358,0.504,0,1,month
12aee48c0c7bbc22cd2b56f302,8/20/2019 5:10,9/16/2019 14:05,0,656.9,656.9,1,Vertical,10,359,0.621,1,1,month
12aee48c0c7bbc22cd2b56f302,8/20/2019 5:10,9/16/2019 14:05,0,656.9,656.9,1,Vertical,10,360,0.495,1,1,month
12aee48c0c7bbc22cd2b56f302,8/20/2019 5:10,9/16/2019 14:05,0,656.9,656.9,1,Horizontal,6,361,1.051,1,1,month
12aee48c0c7bbc22cd2b56f302,8/20/2019 5:10,9/16/2019 14:05,0,656.9,656.9,1,Horizontal,-2,362,0.775,0,1,month
12aee48c0c7bbc22cd2b56f302,8/20/2019 5:10,9/16/2019 14:05,0,656.9,656.9,1,Horizontal,4,363,0.521,1,1,month
12aee48c0c7bbc22cd2b56f302,8/20/2019 5:10,9/16/2019 14:05,0,656.9,656.9,1,Vertical,0,364,0.81,0,1,month
12aee48c0c7bbc22cd2b56f302,8/20/2019 5:10,9/16/2019 14:05,0,656.9,656.9,1,Vertical,6,365,0.693,1,1,month
12aee48c0c7bbc22cd2b56f302,8/20/2019 5:10,9/16/2019 14:05,0,656.9,656.9,1,Vertical,-6,366,0.489,0,1,month
12aee48c0c7bbc22cd2b56f302,8/20/2019 5:10,9/16/2019 14:05,0,656.9,656.9,1,Horizontal,0,367,0.648,1,1,month
12aee48c0c7bbc22cd2b56f302,8/20/2019 5:10,9/16/2019 14:05,0,656.9,656.9,1,Horizontal,6,368,0.477,1,1,month
12aee48c0c7bbc22cd2b56f302,8/20/2019 5:10,9/16/2019 14:05,0,656.9,656.9,1,Horizontal,6,369,0.577,1,1,month
12aee48c0c7bbc22cd2b56f302,8/20/2019 5:10,9/16/2019 14:05,0,656.9,656.9,1,Vertical,-2,370,0.814,0,1,month
12aee48c0c7bbc22cd2b56f302,8/20/2019 5:10,9/16/2019 14:05,0,656.9,656.9,1,Vertical,6,371,0.807,1,1,month
12aee48c0c7bbc22cd2b56f302,8/20/2019 5:10,9/16/2019 14:05,0,656.9,656.9,1,Vertical,4,372,0.709,1,1,month
12aee48c0c7bbc22cd2b56f302,8/20/2019 5:10,9/16/2019 14:05,0,656.9,656.9,1,Horizontal,0,373,0.479,1,1,month
12aee48c0c7bbc22cd2b56f302,8/20/2019 5:10,9/16/2019 14:05,0,656.9,656.9,1,Horizontal,-2,374,0.531,0,1,month
12aee48c0c7bbc22cd2b56f302,8/20/2019 5:10,9/16/2019 14:05,0,656.9,656.9,1,Horizontal,-4,375,0.551,0,1,month
12aee48c0c7bbc22cd2b56f302,8/20/2019 5:10,9/16/2019 14:05,0,656.9,656.9,1,Vertical,0,376,0.649,1,1,month
12aee48c0c7bbc22cd2b56f302,8/20/2019 5:10,9/16/2019 14:05,0,656.9,656.9,1,Vertical,2,377,0.769,1,1,month
12aee48c0c7bbc22cd2b56f302,8/20/2019 5:10,9/16/2019 14:05,0,656.9,656.9,1,Vertical,10,378,0.642,1,1,month
12aee48c0c7bbc22cd2b56f302,8/20/2019 5:10,9/16/2019 14:05,0,656.9,656.9,1,Horizontal,-6,379,0.498,0,1,month
12aee48c0c7bbc22cd2b56f302,8/20/2019 5:10,9/16/2019 14:05,0,656.9,656.9,1,Horizontal,8,380,0.524,1,1,month
12aee48c0c7bbc22cd2b56f302,8/20/2019 5:10,9/16/2019 14:05,0,656.9,656.9,1,Horizontal,4,381,0.477,1,1,month
12aee48c0c7bbc22cd2b56f302,8/20/2019 5:10,9/16/2019 14:05,0,656.9,656.9,1,Vertical,0,382,0.938,0,1,month
12aee48c0c7bbc22cd2b56f302,8/20/2019 5:10,9/16/2019 14:05,0,656.9,656.9,1,Vertical,-4,383,0.543,0,1,month
12aee48c0c7bbc22cd2b56f302,8/20/2019 5:10,9/16/2019 14:05,0,656.9,656.9,1,Vertical,2,384,0.654,1,1,month
12aee48c0c7bbc22cd2b56f302,8/20/2019 5:10,9/16/2019 14:05,0,656.9,656.9,1,Horizontal,0,385,1.034,0,1,month
12aee48c0c7bbc22cd2b56f302,8/20/2019 5:10,9/16/2019 14:05,0,656.9,656.9,1,Horizontal,2,386,0.807,1,1,month
12aee48c0c7bbc22cd2b56f302,8/20/2019 5:10,9/16/2019 14:05,0,656.9,656.9,1,Horizontal,2,387,0.553,1,1,month
12aee48c0c7bbc22cd2b56f302,8/20/2019 5:10,9/16/2019 14:05,0,656.9,656.9,1,Vertical,-8,388,0.565,0,1,month
12aee48c0c7bbc22cd2b56f302,8/20/2019 5:10,9/16/2019 14:05,0,656.9,656.9,1,Vertical,-10,389,0.651,0,1,month
12aee48c0c7bbc22cd2b56f302,8/20/2019 5:10,9/16/2019 14:05,0,656.9,656.9,1,Vertical,-2,390,0.687,0,1,month
12aee48c0c7bbc22cd2b56f302,8/20/2019 5:10,9/16/2019 14:05,0,656.9,656.9,1,Horizontal,-4,391,1.245,0,1,month
12aee48c0c7bbc22cd2b56f302,8/20/2019 5:10,9/16/2019 14:05,0,656.9,656.9,1,Horizontal,-10,392,0.47,0,1,month
12aee48c0c7bbc22cd2b56f302,8/20/2019 5:10,9/16/2019 14:05,0,656.9,656.9,1,Horizontal,2,393,0.792,1,1,month
12aee48c0c7bbc22cd2b56f302,8/20/2019 5:10,9/16/2019 14:05,0,656.9,656.9,1,Vertical,0,394,0.78,0,1,month
12aee48c0c7bbc22cd2b56f302,8/20/2019 5:10,9/16/2019 14:05,0,656.9,656.9,1,Vertical,-8,395,0.5,0,1,month
12aee48c0c7bbc22cd2b56f302,8/20/2019 5:10,9/16/2019 14:05,0,656.9,656.9,1,Vertical,2,396,0.97,1,1,month
12aee48c0c7bbc22cd2b56f302,8/20/2019 5:10,9/16/2019 14:05,0,656.9,656.9,1,Horizontal,0,397,0.849,0,1,month
12aee48c0c7bbc22cd2b56f302,8/20/2019 5:10,9/16/2019 14:05,0,656.9,656.9,1,Horizontal,4,398,0.53,1,1,month
12aee48c0c7bbc22cd2b56f302,8/20/2019 5:10,9/16/2019 14:05,0,656.9,656.9,1,Horizontal,-2,399,0.74,0,1,month
12aee48c0c7bbc22cd2b56f302,8/20/2019 5:10,9/16/2019 14:05,0,656.9,656.9,1,Vertical,8,400,0.783,1,1,month
12aee48c0c7bbc22cd2b56f302,8/20/2019 5:10,9/16/2019 14:05,0,656.9,656.9,1,Vertical,-6,401,0.579,0,1,month
12aee48c0c7bbc22cd2b56f302,8/20/2019 5:10,9/16/2019 14:05,0,656.9,656.9,1,Vertical,-4,402,0.435,0,1,month
12aee48c0c7bbc22cd2b56f302,8/20/2019 5:10,9/16/2019 14:05,0,656.9,656.9,1,Horizontal,2,403,0.613,1,1,month
12aee48c0c7bbc22cd2b56f302,8/20/2019 5:10,9/16/2019 14:05,0,656.9,656.9,1,Horizontal,8,404,0.462,1,1,month
12aee48c0c7bbc22cd2b56f302,8/20/2019 5:10,9/16/2019 14:05,0,656.9,656.9,1,Horizontal,-8,405,0.48,0,1,month
12aee48c0c7bbc22cd2b56f302,8/20/2019 5:10,9/16/2019 14:05,0,656.9,656.9,1,Vertical,-10,406,0.487,0,1,month
12aee48c0c7bbc22cd2b56f302,8/20/2019 5:10,9/16/2019 14:05,0,656.9,656.9,1,Vertical,10,407,0.687,1,1,month
12aee48c0c7bbc22cd2b56f302,8/20/2019 5:10,9/16/2019 14:05,0,656.9,656.9,1,Vertical,-4,408,0.574,0,1,month
12aee48c0c7bbc22cd2b56f302,8/20/2019 5:10,9/16/2019 14:05,0,656.9,656.9,1,Horizontal,8,409,0.484,1,1,month
12aee48c0c7bbc22cd2b56f302,8/20/2019 5:10,9/16/2019 14:05,0,656.9,656.9,1,Horizontal,8,410,0.433,1,1,month
12aee48c0c7bbc22cd2b56f302,8/20/2019 5:10,9/16/2019 14:05,0,656.9,656.9,1,Horizontal,-8,411,0.495,0,1,month
12aee48c0c7bbc22cd2b56f302,8/20/2019 5:10,9/16/2019 14:05,0,656.9,656.9,1,Vertical,0,412,0.752,0,1,month
12aee48c0c7bbc22cd2b56f302,8/20/2019 5:10,9/16/2019 14:05,0,656.9,656.9,1,Vertical,8,413,0.611,1,1,month
12aee48c0c7bbc22cd2b56f302,8/20/2019 5:10,9/16/2019 14:05,0,656.9,656.9,1,Vertical,-2,414,0.674,0,1,month
12aee48c0c7bbc22cd2b56f302,8/20/2019 5:10,9/16/2019 14:05,0,656.9,656.9,1,Horizontal,0,415,1.024,0,1,month
12aee48c0c7bbc22cd2b56f302,8/20/2019 5:10,9/16/2019 14:05,0,656.9,656.9,1,Horizontal,-8,416,0.479,0,1,month
12aee48c0c7bbc22cd2b56f302,8/20/2019 5:10,9/16/2019 14:05,0,656.9,656.9,1,Horizontal,-4,417,0.531,0,1,month
12aee48c0c7bbc22cd2b56f302,8/20/2019 5:10,9/16/2019 14:05,0,656.9,656.9,1,Vertical,8,418,0.606,1,1,month
12aee48c0c7bbc22cd2b56f302,8/20/2019 5:10,9/16/2019 14:05,0,656.9,656.9,1,Vertical,-8,419,0.573,0,1,month
12aee48c0c7bbc22cd2b56f302,8/20/2019 5:10,9/16/2019 14:05,0,656.9,656.9,1,Vertical,2,420,0.639,1,1,month
12aee48c0c7bbc22cd2b56f302,8/20/2019 5:10,9/16/2019 14:05,0,656.9,656.9,1,Horizontal,10,421,1.287,1,1,month
12aee48c0c7bbc22cd2b56f302,8/20/2019 5:10,9/16/2019 14:05,0,656.9,656.9,1,Horizontal,-6,422,0.553,0,1,month
12aee48c0c7bbc22cd2b56f302,8/20/2019 5:10,9/16/2019 14:05,0,656.9,656.9,1,Horizontal,4,423,0.433,1,1,month
12aee48c0c7bbc22cd2b56f302,8/20/2019 5:10,9/16/2019 14:05,0,656.9,656.9,1,Vertical,-6,424,0.616,0,1,month
12aee48c0c7bbc22cd2b56f302,8/20/2019 5:10,9/16/2019 14:05,0,656.9,656.9,1,Vertical,-6,425,0.982,0,1,month
12aee48c0c7bbc22cd2b56f302,8/20/2019 5:10,9/16/2019 14:05,0,656.9,656.9,1,Vertical,-10,426,0.457,0,1,month
12aee48c0c7bbc22cd2b56f302,8/20/2019 5:10,9/16/2019 14:05,0,656.9,656.9,1,Horizontal,8,427,0.484,1,1,month
12aee48c0c7bbc22cd2b56f302,8/20/2019 5:10,9/16/2019 14:05,0,656.9,656.9,1,Horizontal,-6,428,0.434,0,1,month
12aee48c0c7bbc22cd2b56f302,8/20/2019 5:10,9/16/2019 14:05,0,656.9,656.9,1,Horizontal,-6,429,0.627,0,1,month
12aee48c0c7bbc22cd2b56f302,8/20/2019 5:10,9/16/2019 14:05,0,656.9,656.9,1,Vertical,0,430,0.564,1,1,month
12aee48c0c7bbc22cd2b56f302,8/20/2019 5:10,9/16/2019 14:05,0,656.9,656.9,1,Vertical,6,431,0.514,1,1,month
12aee48c0c7bbc22cd2b56f302,8/20/2019 5:10,9/16/2019 14:05,0,656.9,656.9,1,Vertical,10,432,0.534,1,1,month
12aee48c0c7bbc22cd2b56f302,8/20/2019 5:10,9/16/2019 14:05,0,656.9,656.9,1,Horizontal,0,433,0.574,0,1,month
12aee48c0c7bbc22cd2b56f302,8/20/2019 5:10,9/16/2019 14:05,0,656.9,656.9,1,Horizontal,6,434,0.642,1,1,month
12aee48c0c7bbc22cd2b56f302,8/20/2019 5:10,9/16/2019 14:05,0,656.9,656.9,1,Horizontal,2,435,0.88,1,1,month
12aee48c0c7bbc22cd2b56f302,8/20/2019 5:10,9/16/2019 14:05,0,656.9,656.9,1,Vertical,-8,436,0.583,0,1,month
12aee48c0c7bbc22cd2b56f302,8/20/2019 5:10,9/16/2019 14:05,0,656.9,656.9,1,Vertical,-4,437,0.455,0,1,month
12aee48c0c7bbc22cd2b56f302,8/20/2019 5:10,9/16/2019 14:05,0,656.9,656.9,1,Vertical,8,438,0.731,1,1,month
12aee48c0c7bbc22cd2b56f302,8/20/2019 5:10,9/16/2019 14:05,0,656.9,656.9,1,Horizontal,0,439,0.939,1,1,month
12aee48c0c7bbc22cd2b56f302,8/20/2019 5:10,9/16/2019 14:05,0,656.9,656.9,1,Horizontal,-10,440,0.543,0,1,month
12aee48c0c7bbc22cd2b56f302,8/20/2019 5:10,9/16/2019 14:05,0,656.9,656.9,1,Horizontal,-8,441,0.508,0,1,month
12aee48c0c7bbc22cd2b56f302,8/20/2019 5:10,9/16/2019 14:05,0,656.9,656.9,1,Vertical,-8,442,0.714,0,1,month
12aee48c0c7bbc22cd2b56f302,8/20/2019 5:10,9/16/2019 14:05,0,656.9,656.9,1,Vertical,4,443,0.651,1,1,month
12aee48c0c7bbc22cd2b56f302,8/20/2019 5:10,9/16/2019 14:05,0,656.9,656.9,1,Vertical,4,444,0.965,1,1,month
12aee48c0c7bbc22cd2b56f302,8/20/2019 5:10,9/16/2019 14:05,0,656.9,656.9,1,Horizontal,0,445,0.956,1,1,month
12aee48c0c7bbc22cd2b56f302,8/20/2019 5:10,9/16/2019 14:05,0,656.9,656.9,1,Horizontal,10,446,0.514,1,1,month
12aee48c0c7bbc22cd2b56f302,8/20/2019 5:10,9/16/2019 14:05,0,656.9,656.9,1,Horizontal,-2,447,0.465,0,1,month
