ID,endDate,startDate,didSess3,hourDiff21,hourDiffPrev,session,task,dev,trialNum,rt,response,subj_idx,timeCondition
063ad4117feb47e7b3f458ae7d,7/26/2019 16:09,7/27/2019 18:04,1,25.9,25.9,1,Horizontal,10,1,1.179,1,0,years
063ad4117feb47e7b3f458ae7d,7/26/2019 16:09,7/27/2019 18:04,1,25.9,25.9,1,Horizontal,-6,2,0.978,0,0,years
063ad4117feb47e7b3f458ae7d,7/26/2019 16:09,7/27/2019 18:04,1,25.9,25.9,1,Horizontal,-10,3,0.57,0,0,years
063ad4117feb47e7b3f458ae7d,7/26/2019 16:09,7/27/2019 18:04,1,25.9,25.9,1,Vertical,-4,4,2.692,1,0,years
063ad4117feb47e7b3f458ae7d,7/26/2019 16:09,7/27/2019 18:04,1,25.9,25.9,1,Vertical,10,5,0.761,1,0,years
063ad4117feb47e7b3f458ae7d,7/26/2019 16:09,7/27/2019 18:04,1,25.9,25.9,1,Vertical,-10,6,1.253,0,0,years
063ad4117feb47e7b3f458ae7d,7/26/2019 16:09,7/27/2019 18:04,1,25.9,25.9,1,Horizontal,0,7,1.34,0,0,years
063ad4117feb47e7b3f458ae7d,7/26/2019 16:09,7/27/2019 18:04,1,25.9,25.9,1,Horizontal,-4,8,0.851,0,0,years
063ad4117feb47e7b3f458ae7d,7/26/2019 16:09,7/27/2019 18:04,1,25.9,25.9,1,Horizontal,-2,9,0.972,0,0,years
063ad4117feb47e7b3f458ae7d,7/26/2019 16:09,7/27/2019 18:04,1,25.9,25.9,1,Vertical,2,10,0.823,1,0,years
063ad4117feb47e7b3f458ae7d,7/26/2019 16:09,7/27/2019 18:04,1,25.9,25.9,1,Vertical,-4,11,1.492,1,0,years
063ad4117feb47e7b3f458ae7d,7/26/2019 16:09,7/27/2019 18:04,1,25.9,25.9,1,Vertical,6,12,0.686,1,0,years
063ad4117feb47e7b3f458ae7d,7/26/2019 16:09,7/27/2019 18:04,1,25.9,25.9,1,Horizontal,0,13,0.511,1,0,years
063ad4117feb47e7b3f458ae7d,7/26/2019 16:09,7/27/2019 18:04,1,25.9,25.9,1,Horizontal,-2,14,0.893,0,0,years
063ad4117feb47e7b3f458ae7d,7/26/2019 16:09,7/27/2019 18:04,1,25.9,25.9,1,Horizontal,10,15,0.513,1,0,years
063ad4117feb47e7b3f458ae7d,7/26/2019 16:09,7/27/2019 18:04,1,25.9,25.9,1,Vertical,0,16,0.965,1,0,years
063ad4117feb47e7b3f458ae7d,7/26/2019 16:09,7/27/2019 18:04,1,25.9,25.9,1,Vertical,2,17,1.404,1,0,years
063ad4117feb47e7b3f458ae7d,7/26/2019 16:09,7/27/2019 18:04,1,25.9,25.9,1,Vertical,-10,18,0.595,0,0,years
063ad4117feb47e7b3f458ae7d,7/26/2019 16:09,7/27/2019 18:04,1,25.9,25.9,1,Horizontal,4,19,1.001,1,0,years
063ad4117feb47e7b3f458ae7d,7/26/2019 16:09,7/27/2019 18:04,1,25.9,25.9,1,Horizontal,-8,20,0.486,0,0,years
063ad4117feb47e7b3f458ae7d,7/26/2019 16:09,7/27/2019 18:04,1,25.9,25.9,1,Horizontal,4,21,0.555,1,0,years
063ad4117feb47e7b3f458ae7d,7/26/2019 16:09,7/27/2019 18:04,1,25.9,25.9,1,Vertical,6,22,0.675,1,0,years
063ad4117feb47e7b3f458ae7d,7/26/2019 16:09,7/27/2019 18:04,1,25.9,25.9,1,Vertical,10,23,0.514,1,0,years
063ad4117feb47e7b3f458ae7d,7/26/2019 16:09,7/27/2019 18:04,1,25.9,25.9,1,Vertical,-2,24,0.595,0,0,years
063ad4117feb47e7b3f458ae7d,7/26/2019 16:09,7/27/2019 18:04,1,25.9,25.9,1,Horizontal,0,25,0.697,0,0,years
063ad4117feb47e7b3f458ae7d,7/26/2019 16:09,7/27/2019 18:04,1,25.9,25.9,1,Horizontal,4,26,0.562,1,0,years
063ad4117feb47e7b3f458ae7d,7/26/2019 16:09,7/27/2019 18:04,1,25.9,25.9,1,Horizontal,-4,27,0.532,0,0,years
063ad4117feb47e7b3f458ae7d,7/26/2019 16:09,7/27/2019 18:04,1,25.9,25.9,1,Vertical,0,28,0.718,1,0,years
063ad4117feb47e7b3f458ae7d,7/26/2019 16:09,7/27/2019 18:04,1,25.9,25.9,1,Vertical,-2,29,0.663,0,0,years
063ad4117feb47e7b3f458ae7d,7/26/2019 16:09,7/27/2019 18:04,1,25.9,25.9,1,Vertical,4,30,0.488,1,0,years
063ad4117feb47e7b3f458ae7d,7/26/2019 16:09,7/27/2019 18:04,1,25.9,25.9,1,Horizontal,-8,31,0.658,0,0,years
063ad4117feb47e7b3f458ae7d,7/26/2019 16:09,7/27/2019 18:04,1,25.9,25.9,1,Horizontal,-8,32,0.466,0,0,years
063ad4117feb47e7b3f458ae7d,7/26/2019 16:09,7/27/2019 18:04,1,25.9,25.9,1,Horizontal,6,33,0.533,1,0,years
063ad4117feb47e7b3f458ae7d,7/26/2019 16:09,7/27/2019 18:04,1,25.9,25.9,1,Vertical,-10,34,0.938,0,0,years
063ad4117feb47e7b3f458ae7d,7/26/2019 16:09,7/27/2019 18:04,1,25.9,25.9,1,Vertical,2,35,1.009,1,0,years
063ad4117feb47e7b3f458ae7d,7/26/2019 16:09,7/27/2019 18:04,1,25.9,25.9,1,Vertical,-2,36,1.135,0,0,years
063ad4117feb47e7b3f458ae7d,7/26/2019 16:09,7/27/2019 18:04,1,25.9,25.9,1,Horizontal,0,37,1.115,0,0,years
063ad4117feb47e7b3f458ae7d,7/26/2019 16:09,7/27/2019 18:04,1,25.9,25.9,1,Horizontal,-4,38,0.522,0,0,years
063ad4117feb47e7b3f458ae7d,7/26/2019 16:09,7/27/2019 18:04,1,25.9,25.9,1,Horizontal,-6,39,0.47,0,0,years
063ad4117feb47e7b3f458ae7d,7/26/2019 16:09,7/27/2019 18:04,1,25.9,25.9,1,Vertical,0,40,0.998,1,0,years
063ad4117feb47e7b3f458ae7d,7/26/2019 16:09,7/27/2019 18:04,1,25.9,25.9,1,Vertical,10,41,0.549,1,0,years
063ad4117feb47e7b3f458ae7d,7/26/2019 16:09,7/27/2019 18:04,1,25.9,25.9,1,Vertical,-4,42,1.634,1,0,years
063ad4117feb47e7b3f458ae7d,7/26/2019 16:09,7/27/2019 18:04,1,25.9,25.9,1,Horizontal,4,43,0.523,1,0,years
063ad4117feb47e7b3f458ae7d,7/26/2019 16:09,7/27/2019 18:04,1,25.9,25.9,1,Horizontal,6,44,0.486,1,0,years
063ad4117feb47e7b3f458ae7d,7/26/2019 16:09,7/27/2019 18:04,1,25.9,25.9,1,Horizontal,10,45,0.631,1,0,years
063ad4117feb47e7b3f458ae7d,7/26/2019 16:09,7/27/2019 18:04,1,25.9,25.9,1,Vertical,0,46,0.774,1,0,years
063ad4117feb47e7b3f458ae7d,7/26/2019 16:09,7/27/2019 18:04,1,25.9,25.9,1,Vertical,-8,47,0.722,0,0,years
063ad4117feb47e7b3f458ae7d,7/26/2019 16:09,7/27/2019 18:04,1,25.9,25.9,1,Vertical,8,48,0.593,1,0,years
063ad4117feb47e7b3f458ae7d,7/26/2019 16:09,7/27/2019 18:04,1,25.9,25.9,1,Horizontal,0,49,0.581,0,0,years
063ad4117feb47e7b3f458ae7d,7/26/2019 16:09,7/27/2019 18:04,1,25.9,25.9,1,Horizontal,2,50,1.437,1,0,years
063ad4117feb47e7b3f458ae7d,7/26/2019 16:09,7/27/2019 18:04,1,25.9,25.9,1,Horizontal,-2,51,8.308,0,0,years
063ad4117feb47e7b3f458ae7d,7/26/2019 16:09,7/27/2019 18:04,1,25.9,25.9,1,Vertical,4,52,0.874,1,0,years
063ad4117feb47e7b3f458ae7d,7/26/2019 16:09,7/27/2019 18:04,1,25.9,25.9,1,Vertical,-6,53,0.744,0,0,years
063ad4117feb47e7b3f458ae7d,7/26/2019 16:09,7/27/2019 18:04,1,25.9,25.9,1,Vertical,4,54,0.694,1,0,years
063ad4117feb47e7b3f458ae7d,7/26/2019 16:09,7/27/2019 18:04,1,25.9,25.9,1,Horizontal,-2,55,0.509,0,0,years
063ad4117feb47e7b3f458ae7d,7/26/2019 16:09,7/27/2019 18:04,1,25.9,25.9,1,Horizontal,-8,56,0.476,0,0,years
063ad4117feb47e7b3f458ae7d,7/26/2019 16:09,7/27/2019 18:04,1,25.9,25.9,1,Horizontal,2,57,0.552,1,0,years
063ad4117feb47e7b3f458ae7d,7/26/2019 16:09,7/27/2019 18:04,1,25.9,25.9,1,Vertical,0,58,0.814,1,0,years
063ad4117feb47e7b3f458ae7d,7/26/2019 16:09,7/27/2019 18:04,1,25.9,25.9,1,Vertical,4,59,0.816,1,0,years
063ad4117feb47e7b3f458ae7d,7/26/2019 16:09,7/27/2019 18:04,1,25.9,25.9,1,Vertical,6,60,0.487,1,0,years
063ad4117feb47e7b3f458ae7d,7/26/2019 16:09,7/27/2019 18:04,1,25.9,25.9,1,Horizontal,0,61,1.568,0,0,years
063ad4117feb47e7b3f458ae7d,7/26/2019 16:09,7/27/2019 18:04,1,25.9,25.9,1,Horizontal,6,62,0.834,1,0,years
063ad4117feb47e7b3f458ae7d,7/26/2019 16:09,7/27/2019 18:04,1,25.9,25.9,1,Horizontal,8,63,1.026,1,0,years
063ad4117feb47e7b3f458ae7d,7/26/2019 16:09,7/27/2019 18:04,1,25.9,25.9,1,Vertical,0,64,0.648,1,0,years
063ad4117feb47e7b3f458ae7d,7/26/2019 16:09,7/27/2019 18:04,1,25.9,25.9,1,Vertical,8,65,0.517,1,0,years
063ad4117feb47e7b3f458ae7d,7/26/2019 16:09,7/27/2019 18:04,1,25.9,25.9,1,Vertical,8,66,0.554,1,0,years
063ad4117feb47e7b3f458ae7d,7/26/2019 16:09,7/27/2019 18:04,1,25.9,25.9,1,Horizontal,0,67,1.336,0,0,years
063ad4117feb47e7b3f458ae7d,7/26/2019 16:09,7/27/2019 18:04,1,25.9,25.9,1,Horizontal,-10,68,0.463,0,0,years
063ad4117feb47e7b3f458ae7d,7/26/2019 16:09,7/27/2019 18:04,1,25.9,25.9,1,Horizontal,10,69,0.447,1,0,years
063ad4117feb47e7b3f458ae7d,7/26/2019 16:09,7/27/2019 18:04,1,25.9,25.9,1,Vertical,-6,70,0.5,0,0,years
063ad4117feb47e7b3f458ae7d,7/26/2019 16:09,7/27/2019 18:04,1,25.9,25.9,1,Vertical,-8,71,0.772,0,0,years
063ad4117feb47e7b3f458ae7d,7/26/2019 16:09,7/27/2019 18:04,1,25.9,25.9,1,Vertical,-2,72,1.148,1,0,years
063ad4117feb47e7b3f458ae7d,7/26/2019 16:09,7/27/2019 18:04,1,25.9,25.9,1,Horizontal,8,73,0.557,1,0,years
063ad4117feb47e7b3f458ae7d,7/26/2019 16:09,7/27/2019 18:04,1,25.9,25.9,1,Horizontal,-8,74,0.825,0,0,years
063ad4117feb47e7b3f458ae7d,7/26/2019 16:09,7/27/2019 18:04,1,25.9,25.9,1,Horizontal,-2,75,0.505,0,0,years
063ad4117feb47e7b3f458ae7d,7/26/2019 16:09,7/27/2019 18:04,1,25.9,25.9,1,Vertical,0,76,0.813,1,0,years
063ad4117feb47e7b3f458ae7d,7/26/2019 16:09,7/27/2019 18:04,1,25.9,25.9,1,Vertical,8,77,0.633,1,0,years
063ad4117feb47e7b3f458ae7d,7/26/2019 16:09,7/27/2019 18:04,1,25.9,25.9,1,Vertical,-8,78,0.602,0,0,years
063ad4117feb47e7b3f458ae7d,7/26/2019 16:09,7/27/2019 18:04,1,25.9,25.9,1,Horizontal,-6,79,0.465,0,0,years
063ad4117feb47e7b3f458ae7d,7/26/2019 16:09,7/27/2019 18:04,1,25.9,25.9,1,Horizontal,2,80,0.583,0,0,years
063ad4117feb47e7b3f458ae7d,7/26/2019 16:09,7/27/2019 18:04,1,25.9,25.9,1,Horizontal,6,81,0.522,1,0,years
063ad4117feb47e7b3f458ae7d,7/26/2019 16:09,7/27/2019 18:04,1,25.9,25.9,1,Vertical,-10,82,0.621,1,0,years
063ad4117feb47e7b3f458ae7d,7/26/2019 16:09,7/27/2019 18:04,1,25.9,25.9,1,Vertical,2,83,0.842,1,0,years
063ad4117feb47e7b3f458ae7d,7/26/2019 16:09,7/27/2019 18:04,1,25.9,25.9,1,Vertical,2,84,0.762,1,0,years
063ad4117feb47e7b3f458ae7d,7/26/2019 16:09,7/27/2019 18:04,1,25.9,25.9,1,Horizontal,0,85,1.058,0,0,years
063ad4117feb47e7b3f458ae7d,7/26/2019 16:09,7/27/2019 18:04,1,25.9,25.9,1,Horizontal,8,86,0.54,1,0,years
063ad4117feb47e7b3f458ae7d,7/26/2019 16:09,7/27/2019 18:04,1,25.9,25.9,1,Horizontal,-4,87,0.469,0,0,years
063ad4117feb47e7b3f458ae7d,7/26/2019 16:09,7/27/2019 18:04,1,25.9,25.9,1,Vertical,0,88,1.01,1,0,years
063ad4117feb47e7b3f458ae7d,7/26/2019 16:09,7/27/2019 18:04,1,25.9,25.9,1,Vertical,6,89,0.664,1,0,years
063ad4117feb47e7b3f458ae7d,7/26/2019 16:09,7/27/2019 18:04,1,25.9,25.9,1,Vertical,6,90,0.709,1,0,years
063ad4117feb47e7b3f458ae7d,7/26/2019 16:09,7/27/2019 18:04,1,25.9,25.9,1,Horizontal,0,91,2.045,0,0,years
063ad4117feb47e7b3f458ae7d,7/26/2019 16:09,7/27/2019 18:04,1,25.9,25.9,1,Horizontal,-6,92,0.548,0,0,years
063ad4117feb47e7b3f458ae7d,7/26/2019 16:09,7/27/2019 18:04,1,25.9,25.9,1,Horizontal,8,93,0.49,1,0,years
063ad4117feb47e7b3f458ae7d,7/26/2019 16:09,7/27/2019 18:04,1,25.9,25.9,1,Vertical,-6,94,1.089,0,0,years
063ad4117feb47e7b3f458ae7d,7/26/2019 16:09,7/27/2019 18:04,1,25.9,25.9,1,Vertical,-10,95,0.634,0,0,years
063ad4117feb47e7b3f458ae7d,7/26/2019 16:09,7/27/2019 18:04,1,25.9,25.9,1,Vertical,-8,96,0.722,0,0,years
063ad4117feb47e7b3f458ae7d,7/26/2019 16:09,7/27/2019 18:04,1,25.9,25.9,1,Horizontal,-4,97,0.502,0,0,years
063ad4117feb47e7b3f458ae7d,7/26/2019 16:09,7/27/2019 18:04,1,25.9,25.9,1,Horizontal,-10,98,0.519,0,0,years
063ad4117feb47e7b3f458ae7d,7/26/2019 16:09,7/27/2019 18:04,1,25.9,25.9,1,Horizontal,2,99,0.528,1,0,years
063ad4117feb47e7b3f458ae7d,7/26/2019 16:09,7/27/2019 18:04,1,25.9,25.9,1,Vertical,0,100,1.288,1,0,years
063ad4117feb47e7b3f458ae7d,7/26/2019 16:09,7/27/2019 18:04,1,25.9,25.9,1,Vertical,-4,101,0.614,0,0,years
063ad4117feb47e7b3f458ae7d,7/26/2019 16:09,7/27/2019 18:04,1,25.9,25.9,1,Vertical,-4,102,0.855,0,0,years
063ad4117feb47e7b3f458ae7d,7/26/2019 16:09,7/27/2019 18:04,1,25.9,25.9,1,Horizontal,4,103,0.623,1,0,years
063ad4117feb47e7b3f458ae7d,7/26/2019 16:09,7/27/2019 18:04,1,25.9,25.9,1,Horizontal,-6,104,0.522,0,0,years
063ad4117feb47e7b3f458ae7d,7/26/2019 16:09,7/27/2019 18:04,1,25.9,25.9,1,Horizontal,-10,105,0.473,0,0,years
063ad4117feb47e7b3f458ae7d,7/26/2019 16:09,7/27/2019 18:04,1,25.9,25.9,1,Vertical,-6,106,0.878,0,0,years
063ad4117feb47e7b3f458ae7d,7/26/2019 16:09,7/27/2019 18:04,1,25.9,25.9,1,Vertical,8,107,0.611,1,0,years
063ad4117feb47e7b3f458ae7d,7/26/2019 16:09,7/27/2019 18:04,1,25.9,25.9,1,Vertical,4,108,0.678,1,0,years
063ad4117feb47e7b3f458ae7d,7/26/2019 16:09,7/27/2019 18:04,1,25.9,25.9,1,Horizontal,2,109,0.695,1,0,years
063ad4117feb47e7b3f458ae7d,7/26/2019 16:09,7/27/2019 18:04,1,25.9,25.9,1,Horizontal,8,110,0.783,1,0,years
063ad4117feb47e7b3f458ae7d,7/26/2019 16:09,7/27/2019 18:04,1,25.9,25.9,1,Horizontal,-10,111,0.498,0,0,years
063ad4117feb47e7b3f458ae7d,7/26/2019 16:09,7/27/2019 18:04,1,25.9,25.9,1,Vertical,-8,112,0.744,0,0,years
063ad4117feb47e7b3f458ae7d,7/26/2019 16:09,7/27/2019 18:04,1,25.9,25.9,1,Vertical,-2,113,0.663,1,0,years
063ad4117feb47e7b3f458ae7d,7/26/2019 16:09,7/27/2019 18:04,1,25.9,25.9,1,Vertical,-6,114,0.955,0,0,years
063ad4117feb47e7b3f458ae7d,7/26/2019 16:09,7/27/2019 18:04,1,25.9,25.9,1,Horizontal,0,115,1.029,0,0,years
063ad4117feb47e7b3f458ae7d,7/26/2019 16:09,7/27/2019 18:04,1,25.9,25.9,1,Horizontal,10,116,0.508,1,0,years
063ad4117feb47e7b3f458ae7d,7/26/2019 16:09,7/27/2019 18:04,1,25.9,25.9,1,Horizontal,6,117,0.554,1,0,years
063ad4117feb47e7b3f458ae7d,7/26/2019 16:09,7/27/2019 18:04,1,25.9,25.9,1,Vertical,0,118,0.602,1,0,years
063ad4117feb47e7b3f458ae7d,7/26/2019 16:09,7/27/2019 18:04,1,25.9,25.9,1,Vertical,10,119,0.632,1,0,years
063ad4117feb47e7b3f458ae7d,7/26/2019 16:09,7/27/2019 18:04,1,25.9,25.9,1,Vertical,10,120,0.556,1,0,years
063ad4117feb47e7b3f458ae7d,7/26/2019 16:09,7/27/2019 18:04,1,25.9,25.9,1,Horizontal,6,121,1.236,1,0,years
063ad4117feb47e7b3f458ae7d,7/26/2019 16:09,7/27/2019 18:04,1,25.9,25.9,1,Horizontal,-2,122,1.377,0,0,years
063ad4117feb47e7b3f458ae7d,7/26/2019 16:09,7/27/2019 18:04,1,25.9,25.9,1,Horizontal,4,123,0.51,1,0,years
063ad4117feb47e7b3f458ae7d,7/26/2019 16:09,7/27/2019 18:04,1,25.9,25.9,1,Vertical,0,124,1.242,1,0,years
063ad4117feb47e7b3f458ae7d,7/26/2019 16:09,7/27/2019 18:04,1,25.9,25.9,1,Vertical,6,125,0.654,1,0,years
063ad4117feb47e7b3f458ae7d,7/26/2019 16:09,7/27/2019 18:04,1,25.9,25.9,1,Vertical,-6,126,0.728,0,0,years
063ad4117feb47e7b3f458ae7d,7/26/2019 16:09,7/27/2019 18:04,1,25.9,25.9,1,Horizontal,0,127,0.719,0,0,years
063ad4117feb47e7b3f458ae7d,7/26/2019 16:09,7/27/2019 18:04,1,25.9,25.9,1,Horizontal,6,128,0.526,1,0,years
063ad4117feb47e7b3f458ae7d,7/26/2019 16:09,7/27/2019 18:04,1,25.9,25.9,1,Horizontal,6,129,0.444,1,0,years
063ad4117feb47e7b3f458ae7d,7/26/2019 16:09,7/27/2019 18:04,1,25.9,25.9,1,Vertical,-2,130,1.247,1,0,years
063ad4117feb47e7b3f458ae7d,7/26/2019 16:09,7/27/2019 18:04,1,25.9,25.9,1,Vertical,6,131,0.666,1,0,years
063ad4117feb47e7b3f458ae7d,7/26/2019 16:09,7/27/2019 18:04,1,25.9,25.9,1,Vertical,4,132,0.819,1,0,years
063ad4117feb47e7b3f458ae7d,7/26/2019 16:09,7/27/2019 18:04,1,25.9,25.9,1,Horizontal,0,133,0.723,0,0,years
063ad4117feb47e7b3f458ae7d,7/26/2019 16:09,7/27/2019 18:04,1,25.9,25.9,1,Horizontal,-2,134,0.603,0,0,years
063ad4117feb47e7b3f458ae7d,7/26/2019 16:09,7/27/2019 18:04,1,25.9,25.9,1,Horizontal,-4,135,0.519,0,0,years
063ad4117feb47e7b3f458ae7d,7/26/2019 16:09,7/27/2019 18:04,1,25.9,25.9,1,Vertical,0,136,0.758,1,0,years
063ad4117feb47e7b3f458ae7d,7/26/2019 16:09,7/27/2019 18:04,1,25.9,25.9,1,Vertical,2,137,1.072,1,0,years
063ad4117feb47e7b3f458ae7d,7/26/2019 16:09,7/27/2019 18:04,1,25.9,25.9,1,Vertical,10,138,0.618,1,0,years
063ad4117feb47e7b3f458ae7d,7/26/2019 16:09,7/27/2019 18:04,1,25.9,25.9,1,Horizontal,-6,139,0.482,0,0,years
063ad4117feb47e7b3f458ae7d,7/26/2019 16:09,7/27/2019 18:04,1,25.9,25.9,1,Horizontal,8,140,0.513,1,0,years
063ad4117feb47e7b3f458ae7d,7/26/2019 16:09,7/27/2019 18:04,1,25.9,25.9,1,Horizontal,4,141,0.514,1,0,years
063ad4117feb47e7b3f458ae7d,7/26/2019 16:09,7/27/2019 18:04,1,25.9,25.9,1,Vertical,0,142,0.771,0,0,years
063ad4117feb47e7b3f458ae7d,7/26/2019 16:09,7/27/2019 18:04,1,25.9,25.9,1,Vertical,-4,143,0.743,0,0,years
063ad4117feb47e7b3f458ae7d,7/26/2019 16:09,7/27/2019 18:04,1,25.9,25.9,1,Vertical,2,144,0.724,0,0,years
063ad4117feb47e7b3f458ae7d,7/26/2019 16:09,7/27/2019 18:04,1,25.9,25.9,1,Horizontal,0,145,0.987,0,0,years
063ad4117feb47e7b3f458ae7d,7/26/2019 16:09,7/27/2019 18:04,1,25.9,25.9,1,Horizontal,2,146,1.102,0,0,years
063ad4117feb47e7b3f458ae7d,7/26/2019 16:09,7/27/2019 18:04,1,25.9,25.9,1,Horizontal,2,147,1.02,0,0,years
063ad4117feb47e7b3f458ae7d,7/26/2019 16:09,7/27/2019 18:04,1,25.9,25.9,1,Vertical,-8,148,0.937,0,0,years
063ad4117feb47e7b3f458ae7d,7/26/2019 16:09,7/27/2019 18:04,1,25.9,25.9,1,Vertical,-10,149,0.577,0,0,years
063ad4117feb47e7b3f458ae7d,7/26/2019 16:09,7/27/2019 18:04,1,25.9,25.9,1,Vertical,-2,150,0.725,1,0,years
063ad4117feb47e7b3f458ae7d,7/26/2019 16:09,7/27/2019 18:04,1,25.9,25.9,1,Horizontal,-4,151,1.026,0,0,years
063ad4117feb47e7b3f458ae7d,7/26/2019 16:09,7/27/2019 18:04,1,25.9,25.9,1,Horizontal,-10,152,0.507,0,0,years
063ad4117feb47e7b3f458ae7d,7/26/2019 16:09,7/27/2019 18:04,1,25.9,25.9,1,Horizontal,2,153,1.007,1,0,years
063ad4117feb47e7b3f458ae7d,7/26/2019 16:09,7/27/2019 18:04,1,25.9,25.9,1,Vertical,0,154,1.124,1,0,years
063ad4117feb47e7b3f458ae7d,7/26/2019 16:09,7/27/2019 18:04,1,25.9,25.9,1,Vertical,-8,155,0.723,0,0,years
063ad4117feb47e7b3f458ae7d,7/26/2019 16:09,7/27/2019 18:04,1,25.9,25.9,1,Vertical,2,156,0.762,1,0,years
063ad4117feb47e7b3f458ae7d,7/26/2019 16:09,7/27/2019 18:04,1,25.9,25.9,1,Horizontal,0,157,0.64,0,0,years
063ad4117feb47e7b3f458ae7d,7/26/2019 16:09,7/27/2019 18:04,1,25.9,25.9,1,Horizontal,4,158,0.547,1,0,years
063ad4117feb47e7b3f458ae7d,7/26/2019 16:09,7/27/2019 18:04,1,25.9,25.9,1,Horizontal,-2,159,0.489,0,0,years
063ad4117feb47e7b3f458ae7d,7/26/2019 16:09,7/27/2019 18:04,1,25.9,25.9,1,Vertical,8,160,0.874,1,0,years
063ad4117feb47e7b3f458ae7d,7/26/2019 16:09,7/27/2019 18:04,1,25.9,25.9,1,Vertical,-6,161,0.928,0,0,years
063ad4117feb47e7b3f458ae7d,7/26/2019 16:09,7/27/2019 18:04,1,25.9,25.9,1,Vertical,-4,162,0.741,0,0,years
063ad4117feb47e7b3f458ae7d,7/26/2019 16:09,7/27/2019 18:04,1,25.9,25.9,1,Horizontal,2,163,1.195,1,0,years
063ad4117feb47e7b3f458ae7d,7/26/2019 16:09,7/27/2019 18:04,1,25.9,25.9,1,Horizontal,8,164,0.504,1,0,years
063ad4117feb47e7b3f458ae7d,7/26/2019 16:09,7/27/2019 18:04,1,25.9,25.9,1,Horizontal,-8,165,0.488,0,0,years
063ad4117feb47e7b3f458ae7d,7/26/2019 16:09,7/27/2019 18:04,1,25.9,25.9,1,Vertical,-10,166,0.745,0,0,years
063ad4117feb47e7b3f458ae7d,7/26/2019 16:09,7/27/2019 18:04,1,25.9,25.9,1,Vertical,10,167,0.534,1,0,years
063ad4117feb47e7b3f458ae7d,7/26/2019 16:09,7/27/2019 18:04,1,25.9,25.9,1,Vertical,-4,168,1.53,0,0,years
063ad4117feb47e7b3f458ae7d,7/26/2019 16:09,7/27/2019 18:04,1,25.9,25.9,1,Horizontal,8,169,1.057,1,0,years
063ad4117feb47e7b3f458ae7d,7/26/2019 16:09,7/27/2019 18:04,1,25.9,25.9,1,Horizontal,8,170,0.488,1,0,years
063ad4117feb47e7b3f458ae7d,7/26/2019 16:09,7/27/2019 18:04,1,25.9,25.9,1,Horizontal,-8,171,0.47,0,0,years
063ad4117feb47e7b3f458ae7d,7/26/2019 16:09,7/27/2019 18:04,1,25.9,25.9,1,Vertical,0,172,0.925,1,0,years
063ad4117feb47e7b3f458ae7d,7/26/2019 16:09,7/27/2019 18:04,1,25.9,25.9,1,Vertical,8,173,0.648,1,0,years
063ad4117feb47e7b3f458ae7d,7/26/2019 16:09,7/27/2019 18:04,1,25.9,25.9,1,Vertical,-2,174,0.854,1,0,years
063ad4117feb47e7b3f458ae7d,7/26/2019 16:09,7/27/2019 18:04,1,25.9,25.9,1,Horizontal,0,175,1.082,0,0,years
063ad4117feb47e7b3f458ae7d,7/26/2019 16:09,7/27/2019 18:04,1,25.9,25.9,1,Horizontal,-8,176,0.49,0,0,years
063ad4117feb47e7b3f458ae7d,7/26/2019 16:09,7/27/2019 18:04,1,25.9,25.9,1,Horizontal,-4,177,0.523,0,0,years
063ad4117feb47e7b3f458ae7d,7/26/2019 16:09,7/27/2019 18:04,1,25.9,25.9,1,Vertical,8,178,0.556,1,0,years
063ad4117feb47e7b3f458ae7d,7/26/2019 16:09,7/27/2019 18:04,1,25.9,25.9,1,Vertical,-8,179,0.903,0,0,years
063ad4117feb47e7b3f458ae7d,7/26/2019 16:09,7/27/2019 18:04,1,25.9,25.9,1,Vertical,2,180,1.164,1,0,years
063ad4117feb47e7b3f458ae7d,7/26/2019 16:09,7/27/2019 18:04,1,25.9,25.9,1,Horizontal,10,181,0.562,1,0,years
063ad4117feb47e7b3f458ae7d,7/26/2019 16:09,7/27/2019 18:04,1,25.9,25.9,1,Horizontal,-6,182,0.506,0,0,years
063ad4117feb47e7b3f458ae7d,7/26/2019 16:09,7/27/2019 18:04,1,25.9,25.9,1,Horizontal,4,183,0.533,1,0,years
063ad4117feb47e7b3f458ae7d,7/26/2019 16:09,7/27/2019 18:04,1,25.9,25.9,1,Vertical,-6,184,1.216,0,0,years
063ad4117feb47e7b3f458ae7d,7/26/2019 16:09,7/27/2019 18:04,1,25.9,25.9,1,Vertical,-6,185,0.656,1,0,years
063ad4117feb47e7b3f458ae7d,7/26/2019 16:09,7/27/2019 18:04,1,25.9,25.9,1,Vertical,-10,186,0.725,0,0,years
063ad4117feb47e7b3f458ae7d,7/26/2019 16:09,7/27/2019 18:04,1,25.9,25.9,1,Horizontal,8,187,0.509,1,0,years
063ad4117feb47e7b3f458ae7d,7/26/2019 16:09,7/27/2019 18:04,1,25.9,25.9,1,Horizontal,-6,188,0.5,0,0,years
063ad4117feb47e7b3f458ae7d,7/26/2019 16:09,7/27/2019 18:04,1,25.9,25.9,1,Horizontal,-6,189,0.529,0,0,years
063ad4117feb47e7b3f458ae7d,7/26/2019 16:09,7/27/2019 18:04,1,25.9,25.9,1,Vertical,0,190,0.752,1,0,years
063ad4117feb47e7b3f458ae7d,7/26/2019 16:09,7/27/2019 18:04,1,25.9,25.9,1,Vertical,6,191,0.562,1,0,years
063ad4117feb47e7b3f458ae7d,7/26/2019 16:09,7/27/2019 18:04,1,25.9,25.9,1,Vertical,10,192,0.553,1,0,years
063ad4117feb47e7b3f458ae7d,7/26/2019 16:09,7/27/2019 18:04,1,25.9,25.9,1,Horizontal,0,193,1.373,0,0,years
063ad4117feb47e7b3f458ae7d,7/26/2019 16:09,7/27/2019 18:04,1,25.9,25.9,1,Horizontal,6,194,0.517,1,0,years
063ad4117feb47e7b3f458ae7d,7/26/2019 16:09,7/27/2019 18:04,1,25.9,25.9,1,Horizontal,2,195,1.186,1,0,years
063ad4117feb47e7b3f458ae7d,7/26/2019 16:09,7/27/2019 18:04,1,25.9,25.9,1,Vertical,-8,196,0.736,0,0,years
063ad4117feb47e7b3f458ae7d,7/26/2019 16:09,7/27/2019 18:04,1,25.9,25.9,1,Vertical,-4,197,1.134,1,0,years
063ad4117feb47e7b3f458ae7d,7/26/2019 16:09,7/27/2019 18:04,1,25.9,25.9,1,Vertical,8,198,0.609,1,0,years
063ad4117feb47e7b3f458ae7d,7/26/2019 16:09,7/27/2019 18:04,1,25.9,25.9,1,Horizontal,0,199,0.588,0,0,years
063ad4117feb47e7b3f458ae7d,7/26/2019 16:09,7/27/2019 18:04,1,25.9,25.9,1,Horizontal,-10,200,0.497,0,0,years
063ad4117feb47e7b3f458ae7d,7/26/2019 16:09,7/27/2019 18:04,1,25.9,25.9,1,Horizontal,-8,201,0.467,0,0,years
063ad4117feb47e7b3f458ae7d,7/26/2019 16:09,7/27/2019 18:04,1,25.9,25.9,1,Vertical,-8,202,1.154,0,0,years
063ad4117feb47e7b3f458ae7d,7/26/2019 16:09,7/27/2019 18:04,1,25.9,25.9,1,Vertical,4,203,0.745,1,0,years
063ad4117feb47e7b3f458ae7d,7/26/2019 16:09,7/27/2019 18:04,1,25.9,25.9,1,Vertical,4,204,0.722,1,0,years
063ad4117feb47e7b3f458ae7d,7/26/2019 16:09,7/27/2019 18:04,1,25.9,25.9,1,Horizontal,0,205,0.949,0,0,years
063ad4117feb47e7b3f458ae7d,7/26/2019 16:09,7/27/2019 18:04,1,25.9,25.9,1,Horizontal,10,206,0.586,1,0,years
063ad4117feb47e7b3f458ae7d,7/26/2019 16:09,7/27/2019 18:04,1,25.9,25.9,1,Horizontal,-2,207,0.649,0,0,years
063ad4117feb47e7b3f458ae7d,7/26/2019 16:09,7/27/2019 18:04,1,25.9,25.9,1,Vertical,0,208,0.998,0,0,years
063ad4117feb47e7b3f458ae7d,7/26/2019 16:09,7/27/2019 18:04,1,25.9,25.9,1,Vertical,4,209,0.592,1,0,years
063ad4117feb47e7b3f458ae7d,7/26/2019 16:09,7/27/2019 18:04,1,25.9,25.9,1,Vertical,8,210,0.61,1,0,years
063ad4117feb47e7b3f458ae7d,7/26/2019 16:09,7/27/2019 18:04,1,25.9,25.9,1,Horizontal,6,211,1.191,1,0,years
063ad4117feb47e7b3f458ae7d,7/26/2019 16:09,7/27/2019 18:04,1,25.9,25.9,1,Horizontal,-8,212,0.454,0,0,years
063ad4117feb47e7b3f458ae7d,7/26/2019 16:09,7/27/2019 18:04,1,25.9,25.9,1,Horizontal,-10,213,0.45,0,0,years
063ad4117feb47e7b3f458ae7d,7/26/2019 16:09,7/27/2019 18:04,1,25.9,25.9,1,Vertical,0,214,0.569,1,0,years
063ad4117feb47e7b3f458ae7d,7/26/2019 16:09,7/27/2019 18:04,1,25.9,25.9,1,Vertical,10,215,0.499,1,0,years
063ad4117feb47e7b3f458ae7d,7/26/2019 16:09,7/27/2019 18:04,1,25.9,25.9,1,Vertical,4,216,0.615,1,0,years
063ad4117feb47e7b3f458ae7d,7/26/2019 16:09,7/27/2019 18:04,1,25.9,25.9,1,Horizontal,0,217,0.7,0,0,years
063ad4117feb47e7b3f458ae7d,7/26/2019 16:09,7/27/2019 18:04,1,25.9,25.9,1,Horizontal,-4,218,0.41,0,0,years
063ad4117feb47e7b3f458ae7d,7/26/2019 16:09,7/27/2019 18:04,1,25.9,25.9,1,Horizontal,10,219,0.517,1,0,years
063ad4117feb47e7b3f458ae7d,7/26/2019 16:09,7/27/2019 18:04,1,25.9,25.9,1,Vertical,2,220,0.767,1,0,years
063ad4117feb47e7b3f458ae7d,7/26/2019 16:09,7/27/2019 18:04,1,25.9,25.9,1,Vertical,-4,221,0.695,0,0,years
063ad4117feb47e7b3f458ae7d,7/26/2019 16:09,7/27/2019 18:04,1,25.9,25.9,1,Vertical,-2,222,1.302,0,0,years
063ad4117feb47e7b3f458ae7d,7/26/2019 16:09,7/27/2019 18:04,1,25.9,25.9,1,Horizontal,0,223,0.513,0,0,years
063ad4117feb47e7b3f458ae7d,7/26/2019 16:09,7/27/2019 18:04,1,25.9,25.9,1,Horizontal,10,224,0.461,1,0,years
063ad4117feb47e7b3f458ae7d,7/26/2019 16:09,7/27/2019 18:04,1,25.9,25.9,1,Horizontal,-10,225,0.471,0,0,years
063ad4117feb47e7b3f458ae7d,7/26/2019 16:09,7/27/2019 18:04,1,25.9,25.9,1,Vertical,0,226,0.875,1,0,years
063ad4117feb47e7b3f458ae7d,7/26/2019 16:09,7/27/2019 18:04,1,25.9,25.9,1,Vertical,6,227,0.705,1,0,years
063ad4117feb47e7b3f458ae7d,7/26/2019 16:09,7/27/2019 18:04,1,25.9,25.9,1,Vertical,6,228,2.263,1,0,years
063ad4117feb47e7b3f458ae7d,7/26/2019 16:09,7/27/2019 18:04,1,25.9,25.9,1,Horizontal,-10,229,0.631,0,0,years
063ad4117feb47e7b3f458ae7d,7/26/2019 16:09,7/27/2019 18:04,1,25.9,25.9,1,Horizontal,10,230,0.602,1,0,years
063ad4117feb47e7b3f458ae7d,7/26/2019 16:09,7/27/2019 18:04,1,25.9,25.9,1,Horizontal,4,231,0.543,1,0,years
063ad4117feb47e7b3f458ae7d,7/26/2019 16:09,7/27/2019 18:04,1,25.9,25.9,1,Vertical,0,232,0.98,1,0,years
063ad4117feb47e7b3f458ae7d,7/26/2019 16:09,7/27/2019 18:04,1,25.9,25.9,1,Vertical,-6,233,0.909,0,0,years
063ad4117feb47e7b3f458ae7d,7/26/2019 16:09,7/27/2019 18:04,1,25.9,25.9,1,Vertical,-2,234,0.995,1,0,years
063ad4117feb47e7b3f458ae7d,7/26/2019 16:09,7/27/2019 18:04,1,25.9,25.9,1,Horizontal,-2,235,0.843,0,0,years
063ad4117feb47e7b3f458ae7d,7/26/2019 16:09,7/27/2019 18:04,1,25.9,25.9,1,Horizontal,-4,236,0.789,0,0,years
063ad4117feb47e7b3f458ae7d,7/26/2019 16:09,7/27/2019 18:04,1,25.9,25.9,1,Horizontal,-6,237,0.616,0,0,years
063ad4117feb47e7b3f458ae7d,7/26/2019 16:09,7/27/2019 18:04,1,25.9,25.9,1,Vertical,-10,238,0.697,0,0,years
063ad4117feb47e7b3f458ae7d,7/26/2019 16:09,7/27/2019 18:04,1,25.9,25.9,1,Vertical,10,239,0.765,1,0,years
063ad4117feb47e7b3f458ae7d,7/26/2019 16:09,7/27/2019 18:04,1,25.9,25.9,1,Vertical,-10,240,0.752,0,0,years
063ad4117feb47e7b3f458ae7d,7/26/2019 16:09,7/27/2019 18:04,1,25.9,25.9,1,Horizontal,10,241,0.703,1,0,years
063ad4117feb47e7b3f458ae7d,7/26/2019 16:09,7/27/2019 18:04,1,25.9,25.9,1,Horizontal,-6,242,0.464,0,0,years
063ad4117feb47e7b3f458ae7d,7/26/2019 16:09,7/27/2019 18:04,1,25.9,25.9,1,Horizontal,-10,243,0.451,0,0,years
063ad4117feb47e7b3f458ae7d,7/26/2019 16:09,7/27/2019 18:04,1,25.9,25.9,1,Vertical,-4,244,1.336,0,0,years
063ad4117feb47e7b3f458ae7d,7/26/2019 16:09,7/27/2019 18:04,1,25.9,25.9,1,Vertical,10,245,0.66,1,0,years
063ad4117feb47e7b3f458ae7d,7/26/2019 16:09,7/27/2019 18:04,1,25.9,25.9,1,Vertical,-10,246,0.716,0,0,years
063ad4117feb47e7b3f458ae7d,7/26/2019 16:09,7/27/2019 18:04,1,25.9,25.9,1,Horizontal,0,247,0.997,0,0,years
063ad4117feb47e7b3f458ae7d,7/26/2019 16:09,7/27/2019 18:04,1,25.9,25.9,1,Horizontal,-4,248,0.539,0,0,years
063ad4117feb47e7b3f458ae7d,7/26/2019 16:09,7/27/2019 18:04,1,25.9,25.9,1,Horizontal,-2,249,0.974,0,0,years
063ad4117feb47e7b3f458ae7d,7/26/2019 16:09,7/27/2019 18:04,1,25.9,25.9,1,Vertical,2,250,1.155,1,0,years
063ad4117feb47e7b3f458ae7d,7/26/2019 16:09,7/27/2019 18:04,1,25.9,25.9,1,Vertical,-4,251,0.771,0,0,years
063ad4117feb47e7b3f458ae7d,7/26/2019 16:09,7/27/2019 18:04,1,25.9,25.9,1,Vertical,6,252,0.763,1,0,years
063ad4117feb47e7b3f458ae7d,7/26/2019 16:09,7/27/2019 18:04,1,25.9,25.9,1,Horizontal,0,253,0.54,0,0,years
063ad4117feb47e7b3f458ae7d,7/26/2019 16:09,7/27/2019 18:04,1,25.9,25.9,1,Horizontal,-2,254,0.856,0,0,years
063ad4117feb47e7b3f458ae7d,7/26/2019 16:09,7/27/2019 18:04,1,25.9,25.9,1,Horizontal,10,255,0.496,1,0,years
063ad4117feb47e7b3f458ae7d,7/26/2019 16:09,7/27/2019 18:04,1,25.9,25.9,1,Vertical,0,256,0.996,1,0,years
063ad4117feb47e7b3f458ae7d,7/26/2019 16:09,7/27/2019 18:04,1,25.9,25.9,1,Vertical,2,257,0.567,1,0,years
063ad4117feb47e7b3f458ae7d,7/26/2019 16:09,7/27/2019 18:04,1,25.9,25.9,1,Vertical,-10,258,0.562,0,0,years
063ad4117feb47e7b3f458ae7d,7/26/2019 16:09,7/27/2019 18:04,1,25.9,25.9,1,Horizontal,4,259,0.638,1,0,years
063ad4117feb47e7b3f458ae7d,7/26/2019 16:09,7/27/2019 18:04,1,25.9,25.9,1,Horizontal,-8,260,0.501,0,0,years
063ad4117feb47e7b3f458ae7d,7/26/2019 16:09,7/27/2019 18:04,1,25.9,25.9,1,Horizontal,4,261,0.499,1,0,years
063ad4117feb47e7b3f458ae7d,7/26/2019 16:09,7/27/2019 18:04,1,25.9,25.9,1,Vertical,6,262,0.687,1,0,years
063ad4117feb47e7b3f458ae7d,7/26/2019 16:09,7/27/2019 18:04,1,25.9,25.9,1,Vertical,10,263,0.91,1,0,years
063ad4117feb47e7b3f458ae7d,7/26/2019 16:09,7/27/2019 18:04,1,25.9,25.9,1,Vertical,-2,264,1.355,1,0,years
063ad4117feb47e7b3f458ae7d,7/26/2019 16:09,7/27/2019 18:04,1,25.9,25.9,1,Horizontal,0,265,1.351,0,0,years
063ad4117feb47e7b3f458ae7d,7/26/2019 16:09,7/27/2019 18:04,1,25.9,25.9,1,Horizontal,4,266,0.612,1,0,years
063ad4117feb47e7b3f458ae7d,7/26/2019 16:09,7/27/2019 18:04,1,25.9,25.9,1,Horizontal,-4,267,0.488,0,0,years
063ad4117feb47e7b3f458ae7d,7/26/2019 16:09,7/27/2019 18:04,1,25.9,25.9,1,Vertical,0,268,0.617,1,0,years
063ad4117feb47e7b3f458ae7d,7/26/2019 16:09,7/27/2019 18:04,1,25.9,25.9,1,Vertical,-2,269,0.761,1,0,years
063ad4117feb47e7b3f458ae7d,7/26/2019 16:09,7/27/2019 18:04,1,25.9,25.9,1,Vertical,4,270,0.678,1,0,years
063ad4117feb47e7b3f458ae7d,7/26/2019 16:09,7/27/2019 18:04,1,25.9,25.9,1,Horizontal,-8,271,1.075,0,0,years
063ad4117feb47e7b3f458ae7d,7/26/2019 16:09,7/27/2019 18:04,1,25.9,25.9,1,Horizontal,-8,272,0.418,0,0,years
063ad4117feb47e7b3f458ae7d,7/26/2019 16:09,7/27/2019 18:04,1,25.9,25.9,1,Horizontal,6,273,0.447,1,0,years
063ad4117feb47e7b3f458ae7d,7/26/2019 16:09,7/27/2019 18:04,1,25.9,25.9,1,Vertical,-10,274,0.97,0,0,years
063ad4117feb47e7b3f458ae7d,7/26/2019 16:09,7/27/2019 18:04,1,25.9,25.9,1,Vertical,2,275,0.789,1,0,years
063ad4117feb47e7b3f458ae7d,7/26/2019 16:09,7/27/2019 18:04,1,25.9,25.9,1,Vertical,-2,276,0.942,0,0,years
063ad4117feb47e7b3f458ae7d,7/26/2019 16:09,7/27/2019 18:04,1,25.9,25.9,1,Horizontal,0,277,0.726,0,0,years
063ad4117feb47e7b3f458ae7d,7/26/2019 16:09,7/27/2019 18:04,1,25.9,25.9,1,Horizontal,-4,278,0.581,0,0,years
063ad4117feb47e7b3f458ae7d,7/26/2019 16:09,7/27/2019 18:04,1,25.9,25.9,1,Horizontal,-6,279,0.42,0,0,years
063ad4117feb47e7b3f458ae7d,7/26/2019 16:09,7/27/2019 18:04,1,25.9,25.9,1,Vertical,0,280,0.762,1,0,years
063ad4117feb47e7b3f458ae7d,7/26/2019 16:09,7/27/2019 18:04,1,25.9,25.9,1,Vertical,10,281,0.498,1,0,years
063ad4117feb47e7b3f458ae7d,7/26/2019 16:09,7/27/2019 18:04,1,25.9,25.9,1,Vertical,-4,282,0.769,0,0,years
063ad4117feb47e7b3f458ae7d,7/26/2019 16:09,7/27/2019 18:04,1,25.9,25.9,1,Horizontal,4,283,0.523,1,0,years
063ad4117feb47e7b3f458ae7d,7/26/2019 16:09,7/27/2019 18:04,1,25.9,25.9,1,Horizontal,6,284,0.464,1,0,years
063ad4117feb47e7b3f458ae7d,7/26/2019 16:09,7/27/2019 18:04,1,25.9,25.9,1,Horizontal,10,285,0.484,1,0,years
063ad4117feb47e7b3f458ae7d,7/26/2019 16:09,7/27/2019 18:04,1,25.9,25.9,1,Vertical,0,286,0.978,1,0,years
063ad4117feb47e7b3f458ae7d,7/26/2019 16:09,7/27/2019 18:04,1,25.9,25.9,1,Vertical,-8,287,0.531,0,0,years
063ad4117feb47e7b3f458ae7d,7/26/2019 16:09,7/27/2019 18:04,1,25.9,25.9,1,Vertical,8,288,0.629,1,0,years
063ad4117feb47e7b3f458ae7d,7/26/2019 16:09,7/27/2019 18:04,1,25.9,25.9,1,Horizontal,0,289,0.938,0,0,years
063ad4117feb47e7b3f458ae7d,7/26/2019 16:09,7/27/2019 18:04,1,25.9,25.9,1,Horizontal,2,290,1.142,1,0,years
063ad4117feb47e7b3f458ae7d,7/26/2019 16:09,7/27/2019 18:04,1,25.9,25.9,1,Horizontal,-2,291,0.512,0,0,years
063ad4117feb47e7b3f458ae7d,7/26/2019 16:09,7/27/2019 18:04,1,25.9,25.9,1,Vertical,4,292,0.872,1,0,years
063ad4117feb47e7b3f458ae7d,7/26/2019 16:09,7/27/2019 18:04,1,25.9,25.9,1,Vertical,-6,293,1.527,0,0,years
063ad4117feb47e7b3f458ae7d,7/26/2019 16:09,7/27/2019 18:04,1,25.9,25.9,1,Vertical,4,294,0.852,1,0,years
063ad4117feb47e7b3f458ae7d,7/26/2019 16:09,7/27/2019 18:04,1,25.9,25.9,1,Horizontal,-2,295,0.67,0,0,years
063ad4117feb47e7b3f458ae7d,7/26/2019 16:09,7/27/2019 18:04,1,25.9,25.9,1,Horizontal,-8,296,0.555,0,0,years
063ad4117feb47e7b3f458ae7d,7/26/2019 16:09,7/27/2019 18:04,1,25.9,25.9,1,Horizontal,2,297,1.184,1,0,years
063ad4117feb47e7b3f458ae7d,7/26/2019 16:09,7/27/2019 18:04,1,25.9,25.9,1,Vertical,0,298,1.264,0,0,years
063ad4117feb47e7b3f458ae7d,7/26/2019 16:09,7/27/2019 18:04,1,25.9,25.9,1,Vertical,4,299,0.868,1,0,years
063ad4117feb47e7b3f458ae7d,7/26/2019 16:09,7/27/2019 18:04,1,25.9,25.9,1,Vertical,6,300,0.536,1,0,years
063ad4117feb47e7b3f458ae7d,7/26/2019 16:09,7/27/2019 18:04,1,25.9,25.9,1,Horizontal,0,301,1.204,0,0,years
063ad4117feb47e7b3f458ae7d,7/26/2019 16:09,7/27/2019 18:04,1,25.9,25.9,1,Horizontal,6,302,0.597,1,0,years
063ad4117feb47e7b3f458ae7d,7/26/2019 16:09,7/27/2019 18:04,1,25.9,25.9,1,Horizontal,8,303,0.601,1,0,years
063ad4117feb47e7b3f458ae7d,7/26/2019 16:09,7/27/2019 18:04,1,25.9,25.9,1,Vertical,0,304,0.784,1,0,years
063ad4117feb47e7b3f458ae7d,7/26/2019 16:09,7/27/2019 18:04,1,25.9,25.9,1,Vertical,8,305,0.636,1,0,years
063ad4117feb47e7b3f458ae7d,7/26/2019 16:09,7/27/2019 18:04,1,25.9,25.9,1,Vertical,8,306,0.626,1,0,years
063ad4117feb47e7b3f458ae7d,7/26/2019 16:09,7/27/2019 18:04,1,25.9,25.9,1,Horizontal,0,307,0.999,0,0,years
063ad4117feb47e7b3f458ae7d,7/26/2019 16:09,7/27/2019 18:04,1,25.9,25.9,1,Horizontal,-10,308,0.533,0,0,years
063ad4117feb47e7b3f458ae7d,7/26/2019 16:09,7/27/2019 18:04,1,25.9,25.9,1,Horizontal,10,309,0.457,1,0,years
063ad4117feb47e7b3f458ae7d,7/26/2019 16:09,7/27/2019 18:04,1,25.9,25.9,1,Vertical,-6,310,1.092,0,0,years
063ad4117feb47e7b3f458ae7d,7/26/2019 16:09,7/27/2019 18:04,1,25.9,25.9,1,Vertical,-8,311,0.84,0,0,years
063ad4117feb47e7b3f458ae7d,7/26/2019 16:09,7/27/2019 18:04,1,25.9,25.9,1,Vertical,-2,312,0.683,1,0,years
063ad4117feb47e7b3f458ae7d,7/26/2019 16:09,7/27/2019 18:04,1,25.9,25.9,1,Horizontal,8,313,0.514,1,0,years
063ad4117feb47e7b3f458ae7d,7/26/2019 16:09,7/27/2019 18:04,1,25.9,25.9,1,Horizontal,-8,314,0.5,0,0,years
063ad4117feb47e7b3f458ae7d,7/26/2019 16:09,7/27/2019 18:04,1,25.9,25.9,1,Horizontal,-2,315,0.773,0,0,years
063ad4117feb47e7b3f458ae7d,7/26/2019 16:09,7/27/2019 18:04,1,25.9,25.9,1,Vertical,0,316,0.858,1,0,years
063ad4117feb47e7b3f458ae7d,7/26/2019 16:09,7/27/2019 18:04,1,25.9,25.9,1,Vertical,8,317,0.589,1,0,years
063ad4117feb47e7b3f458ae7d,7/26/2019 16:09,7/27/2019 18:04,1,25.9,25.9,1,Vertical,-8,318,0.584,0,0,years
063ad4117feb47e7b3f458ae7d,7/26/2019 16:09,7/27/2019 18:04,1,25.9,25.9,1,Horizontal,-6,319,0.6,0,0,years
063ad4117feb47e7b3f458ae7d,7/26/2019 16:09,7/27/2019 18:04,1,25.9,25.9,1,Horizontal,2,320,2.068,1,0,years
063ad4117feb47e7b3f458ae7d,7/26/2019 16:09,7/27/2019 18:04,1,25.9,25.9,1,Horizontal,6,321,0.513,1,0,years
063ad4117feb47e7b3f458ae7d,7/26/2019 16:09,7/27/2019 18:04,1,25.9,25.9,1,Vertical,-10,322,0.792,0,0,years
063ad4117feb47e7b3f458ae7d,7/26/2019 16:09,7/27/2019 18:04,1,25.9,25.9,1,Vertical,2,323,0.733,1,0,years
063ad4117feb47e7b3f458ae7d,7/26/2019 16:09,7/27/2019 18:04,1,25.9,25.9,1,Vertical,2,324,0.919,1,0,years
063ad4117feb47e7b3f458ae7d,7/26/2019 16:09,7/27/2019 18:04,1,25.9,25.9,1,Horizontal,0,325,1.385,0,0,years
063ad4117feb47e7b3f458ae7d,7/26/2019 16:09,7/27/2019 18:04,1,25.9,25.9,1,Horizontal,8,326,0.584,1,0,years
063ad4117feb47e7b3f458ae7d,7/26/2019 16:09,7/27/2019 18:04,1,25.9,25.9,1,Horizontal,-4,327,0.599,0,0,years
063ad4117feb47e7b3f458ae7d,7/26/2019 16:09,7/27/2019 18:04,1,25.9,25.9,1,Vertical,0,328,1.078,1,0,years
063ad4117feb47e7b3f458ae7d,7/26/2019 16:09,7/27/2019 18:04,1,25.9,25.9,1,Vertical,6,329,0.816,1,0,years
063ad4117feb47e7b3f458ae7d,7/26/2019 16:09,7/27/2019 18:04,1,25.9,25.9,1,Vertical,6,330,0.668,1,0,years
063ad4117feb47e7b3f458ae7d,7/26/2019 16:09,7/27/2019 18:04,1,25.9,25.9,1,Horizontal,0,331,0.698,0,0,years
063ad4117feb47e7b3f458ae7d,7/26/2019 16:09,7/27/2019 18:04,1,25.9,25.9,1,Horizontal,-6,332,0.514,0,0,years
063ad4117feb47e7b3f458ae7d,7/26/2019 16:09,7/27/2019 18:04,1,25.9,25.9,1,Horizontal,8,333,0.463,1,0,years
063ad4117feb47e7b3f458ae7d,7/26/2019 16:09,7/27/2019 18:04,1,25.9,25.9,1,Vertical,-6,334,0.813,0,0,years
063ad4117feb47e7b3f458ae7d,7/26/2019 16:09,7/27/2019 18:04,1,25.9,25.9,1,Vertical,-10,335,0.683,0,0,years
063ad4117feb47e7b3f458ae7d,7/26/2019 16:09,7/27/2019 18:04,1,25.9,25.9,1,Vertical,-8,336,0.813,0,0,years
063ad4117feb47e7b3f458ae7d,7/26/2019 16:09,7/27/2019 18:04,1,25.9,25.9,1,Horizontal,-4,337,0.611,0,0,years
063ad4117feb47e7b3f458ae7d,7/26/2019 16:09,7/27/2019 18:04,1,25.9,25.9,1,Horizontal,-10,338,0.51,0,0,years
063ad4117feb47e7b3f458ae7d,7/26/2019 16:09,7/27/2019 18:04,1,25.9,25.9,1,Horizontal,2,339,1.001,1,0,years
063ad4117feb47e7b3f458ae7d,7/26/2019 16:09,7/27/2019 18:04,1,25.9,25.9,1,Vertical,0,340,2.936,1,0,years
063ad4117feb47e7b3f458ae7d,7/26/2019 16:09,7/27/2019 18:04,1,25.9,25.9,1,Vertical,-4,341,0.947,1,0,years
063ad4117feb47e7b3f458ae7d,7/26/2019 16:09,7/27/2019 18:04,1,25.9,25.9,1,Vertical,-4,342,2.09,0,0,years
063ad4117feb47e7b3f458ae7d,7/26/2019 16:09,7/27/2019 18:04,1,25.9,25.9,1,Horizontal,4,343,0.795,1,0,years
063ad4117feb47e7b3f458ae7d,7/26/2019 16:09,7/27/2019 18:04,1,25.9,25.9,1,Horizontal,-6,344,0.604,0,0,years
063ad4117feb47e7b3f458ae7d,7/26/2019 16:09,7/27/2019 18:04,1,25.9,25.9,1,Horizontal,-10,345,0.529,0,0,years
063ad4117feb47e7b3f458ae7d,7/26/2019 16:09,7/27/2019 18:04,1,25.9,25.9,1,Vertical,-6,346,1.201,0,0,years
063ad4117feb47e7b3f458ae7d,7/26/2019 16:09,7/27/2019 18:04,1,25.9,25.9,1,Vertical,8,347,0.561,1,0,years
063ad4117feb47e7b3f458ae7d,7/26/2019 16:09,7/27/2019 18:04,1,25.9,25.9,1,Vertical,4,348,0.529,1,0,years
063ad4117feb47e7b3f458ae7d,7/26/2019 16:09,7/27/2019 18:04,1,25.9,25.9,1,Horizontal,2,349,0.586,1,0,years
063ad4117feb47e7b3f458ae7d,7/26/2019 16:09,7/27/2019 18:04,1,25.9,25.9,1,Horizontal,8,350,0.552,1,0,years
063ad4117feb47e7b3f458ae7d,7/26/2019 16:09,7/27/2019 18:04,1,25.9,25.9,1,Horizontal,-10,351,0.447,0,0,years
063ad4117feb47e7b3f458ae7d,7/26/2019 16:09,7/27/2019 18:04,1,25.9,25.9,1,Vertical,-8,352,0.861,0,0,years
063ad4117feb47e7b3f458ae7d,7/26/2019 16:09,7/27/2019 18:04,1,25.9,25.9,1,Vertical,-2,353,0.779,1,0,years
063ad4117feb47e7b3f458ae7d,7/26/2019 16:09,7/27/2019 18:04,1,25.9,25.9,1,Vertical,-6,354,1.14,0,0,years
063ad4117feb47e7b3f458ae7d,7/26/2019 16:09,7/27/2019 18:04,1,25.9,25.9,1,Horizontal,0,355,1.236,0,0,years
063ad4117feb47e7b3f458ae7d,7/26/2019 16:09,7/27/2019 18:04,1,25.9,25.9,1,Horizontal,10,356,0.44,1,0,years
063ad4117feb47e7b3f458ae7d,7/26/2019 16:09,7/27/2019 18:04,1,25.9,25.9,1,Horizontal,6,357,0.513,1,0,years
063ad4117feb47e7b3f458ae7d,7/26/2019 16:09,7/27/2019 18:04,1,25.9,25.9,1,Vertical,0,358,0.764,1,0,years
063ad4117feb47e7b3f458ae7d,7/26/2019 16:09,7/27/2019 18:04,1,25.9,25.9,1,Vertical,10,359,0.575,1,0,years
063ad4117feb47e7b3f458ae7d,7/26/2019 16:09,7/27/2019 18:04,1,25.9,25.9,1,Vertical,10,360,0.549,1,0,years
063ad4117feb47e7b3f458ae7d,7/26/2019 16:09,7/27/2019 18:04,1,25.9,25.9,1,Horizontal,6,361,0.653,1,0,years
063ad4117feb47e7b3f458ae7d,7/26/2019 16:09,7/27/2019 18:04,1,25.9,25.9,1,Horizontal,-2,362,0.554,0,0,years
063ad4117feb47e7b3f458ae7d,7/26/2019 16:09,7/27/2019 18:04,1,25.9,25.9,1,Horizontal,4,363,0.472,1,0,years
063ad4117feb47e7b3f458ae7d,7/26/2019 16:09,7/27/2019 18:04,1,25.9,25.9,1,Vertical,0,364,0.851,1,0,years
063ad4117feb47e7b3f458ae7d,7/26/2019 16:09,7/27/2019 18:04,1,25.9,25.9,1,Vertical,6,365,0.605,1,0,years
063ad4117feb47e7b3f458ae7d,7/26/2019 16:09,7/27/2019 18:04,1,25.9,25.9,1,Vertical,-6,366,0.524,0,0,years
063ad4117feb47e7b3f458ae7d,7/26/2019 16:09,7/27/2019 18:04,1,25.9,25.9,1,Horizontal,0,367,0.83,0,0,years
063ad4117feb47e7b3f458ae7d,7/26/2019 16:09,7/27/2019 18:04,1,25.9,25.9,1,Horizontal,6,368,0.576,1,0,years
063ad4117feb47e7b3f458ae7d,7/26/2019 16:09,7/27/2019 18:04,1,25.9,25.9,1,Horizontal,6,369,0.539,1,0,years
063ad4117feb47e7b3f458ae7d,7/26/2019 16:09,7/27/2019 18:04,1,25.9,25.9,1,Vertical,-2,370,0.59,0,0,years
063ad4117feb47e7b3f458ae7d,7/26/2019 16:09,7/27/2019 18:04,1,25.9,25.9,1,Vertical,6,371,0.657,1,0,years
063ad4117feb47e7b3f458ae7d,7/26/2019 16:09,7/27/2019 18:04,1,25.9,25.9,1,Vertical,4,372,0.86,1,0,years
063ad4117feb47e7b3f458ae7d,7/26/2019 16:09,7/27/2019 18:04,1,25.9,25.9,1,Horizontal,0,373,0.905,0,0,years
063ad4117feb47e7b3f458ae7d,7/26/2019 16:09,7/27/2019 18:04,1,25.9,25.9,1,Horizontal,-2,374,0.484,0,0,years
063ad4117feb47e7b3f458ae7d,7/26/2019 16:09,7/27/2019 18:04,1,25.9,25.9,1,Horizontal,-4,375,0.496,0,0,years
063ad4117feb47e7b3f458ae7d,7/26/2019 16:09,7/27/2019 18:04,1,25.9,25.9,1,Vertical,0,376,1.168,1,0,years
063ad4117feb47e7b3f458ae7d,7/26/2019 16:09,7/27/2019 18:04,1,25.9,25.9,1,Vertical,2,377,0.732,1,0,years
063ad4117feb47e7b3f458ae7d,7/26/2019 16:09,7/27/2019 18:04,1,25.9,25.9,1,Vertical,10,378,0.533,1,0,years
063ad4117feb47e7b3f458ae7d,7/26/2019 16:09,7/27/2019 18:04,1,25.9,25.9,1,Horizontal,-6,379,0.49,0,0,years
063ad4117feb47e7b3f458ae7d,7/26/2019 16:09,7/27/2019 18:04,1,25.9,25.9,1,Horizontal,8,380,0.58,1,0,years
063ad4117feb47e7b3f458ae7d,7/26/2019 16:09,7/27/2019 18:04,1,25.9,25.9,1,Horizontal,4,381,0.567,1,0,years
063ad4117feb47e7b3f458ae7d,7/26/2019 16:09,7/27/2019 18:04,1,25.9,25.9,1,Vertical,0,382,0.96,1,0,years
063ad4117feb47e7b3f458ae7d,7/26/2019 16:09,7/27/2019 18:04,1,25.9,25.9,1,Vertical,-4,383,1.216,0,0,years
063ad4117feb47e7b3f458ae7d,7/26/2019 16:09,7/27/2019 18:04,1,25.9,25.9,1,Vertical,2,384,0.83,1,0,years
063ad4117feb47e7b3f458ae7d,7/26/2019 16:09,7/27/2019 18:04,1,25.9,25.9,1,Horizontal,0,385,0.634,0,0,years
063ad4117feb47e7b3f458ae7d,7/26/2019 16:09,7/27/2019 18:04,1,25.9,25.9,1,Horizontal,2,386,1.024,1,0,years
063ad4117feb47e7b3f458ae7d,7/26/2019 16:09,7/27/2019 18:04,1,25.9,25.9,1,Horizontal,2,387,0.628,0,0,years
063ad4117feb47e7b3f458ae7d,7/26/2019 16:09,7/27/2019 18:04,1,25.9,25.9,1,Vertical,-8,388,0.86,0,0,years
063ad4117feb47e7b3f458ae7d,7/26/2019 16:09,7/27/2019 18:04,1,25.9,25.9,1,Vertical,-10,389,1.304,0,0,years
063ad4117feb47e7b3f458ae7d,7/26/2019 16:09,7/27/2019 18:04,1,25.9,25.9,1,Vertical,-2,390,0.725,1,0,years
063ad4117feb47e7b3f458ae7d,7/26/2019 16:09,7/27/2019 18:04,1,25.9,25.9,1,Horizontal,-4,391,0.59,0,0,years
063ad4117feb47e7b3f458ae7d,7/26/2019 16:09,7/27/2019 18:04,1,25.9,25.9,1,Horizontal,-10,392,0.487,0,0,years
063ad4117feb47e7b3f458ae7d,7/26/2019 16:09,7/27/2019 18:04,1,25.9,25.9,1,Horizontal,2,393,0.954,1,0,years
063ad4117feb47e7b3f458ae7d,7/26/2019 16:09,7/27/2019 18:04,1,25.9,25.9,1,Vertical,0,394,0.708,1,0,years
063ad4117feb47e7b3f458ae7d,7/26/2019 16:09,7/27/2019 18:04,1,25.9,25.9,1,Vertical,-8,395,0.891,0,0,years
063ad4117feb47e7b3f458ae7d,7/26/2019 16:09,7/27/2019 18:04,1,25.9,25.9,1,Vertical,2,396,0.689,1,0,years
063ad4117feb47e7b3f458ae7d,7/26/2019 16:09,7/27/2019 18:04,1,25.9,25.9,1,Horizontal,0,397,0.937,0,0,years
063ad4117feb47e7b3f458ae7d,7/26/2019 16:09,7/27/2019 18:04,1,25.9,25.9,1,Horizontal,4,398,0.66,1,0,years
063ad4117feb47e7b3f458ae7d,7/26/2019 16:09,7/27/2019 18:04,1,25.9,25.9,1,Horizontal,-2,399,0.456,0,0,years
063ad4117feb47e7b3f458ae7d,7/26/2019 16:09,7/27/2019 18:04,1,25.9,25.9,1,Vertical,8,400,0.552,1,0,years
063ad4117feb47e7b3f458ae7d,7/26/2019 16:09,7/27/2019 18:04,1,25.9,25.9,1,Vertical,-6,401,0.53,0,0,years
063ad4117feb47e7b3f458ae7d,7/26/2019 16:09,7/27/2019 18:04,1,25.9,25.9,1,Vertical,-4,402,0.665,0,0,years
063ad4117feb47e7b3f458ae7d,7/26/2019 16:09,7/27/2019 18:04,1,25.9,25.9,1,Horizontal,2,403,1.066,1,0,years
063ad4117feb47e7b3f458ae7d,7/26/2019 16:09,7/27/2019 18:04,1,25.9,25.9,1,Horizontal,8,404,0.51,1,0,years
063ad4117feb47e7b3f458ae7d,7/26/2019 16:09,7/27/2019 18:04,1,25.9,25.9,1,Horizontal,-8,405,0.475,0,0,years
063ad4117feb47e7b3f458ae7d,7/26/2019 16:09,7/27/2019 18:04,1,25.9,25.9,1,Vertical,-10,406,0.716,0,0,years
063ad4117feb47e7b3f458ae7d,7/26/2019 16:09,7/27/2019 18:04,1,25.9,25.9,1,Vertical,10,407,0.548,1,0,years
063ad4117feb47e7b3f458ae7d,7/26/2019 16:09,7/27/2019 18:04,1,25.9,25.9,1,Vertical,-4,408,0.925,0,0,years
063ad4117feb47e7b3f458ae7d,7/26/2019 16:09,7/27/2019 18:04,1,25.9,25.9,1,Horizontal,8,409,0.485,1,0,years
063ad4117feb47e7b3f458ae7d,7/26/2019 16:09,7/27/2019 18:04,1,25.9,25.9,1,Horizontal,8,410,0.445,1,0,years
063ad4117feb47e7b3f458ae7d,7/26/2019 16:09,7/27/2019 18:04,1,25.9,25.9,1,Horizontal,-8,411,0.51,0,0,years
063ad4117feb47e7b3f458ae7d,7/26/2019 16:09,7/27/2019 18:04,1,25.9,25.9,1,Vertical,0,412,0.784,1,0,years
063ad4117feb47e7b3f458ae7d,7/26/2019 16:09,7/27/2019 18:04,1,25.9,25.9,1,Vertical,8,413,0.493,1,0,years
063ad4117feb47e7b3f458ae7d,7/26/2019 16:09,7/27/2019 18:04,1,25.9,25.9,1,Vertical,-2,414,0.653,0,0,years
063ad4117feb47e7b3f458ae7d,7/26/2019 16:09,7/27/2019 18:04,1,25.9,25.9,1,Horizontal,0,415,0.56,1,0,years
063ad4117feb47e7b3f458ae7d,7/26/2019 16:09,7/27/2019 18:04,1,25.9,25.9,1,Horizontal,-8,416,0.542,0,0,years
063ad4117feb47e7b3f458ae7d,7/26/2019 16:09,7/27/2019 18:04,1,25.9,25.9,1,Horizontal,-4,417,0.51,0,0,years
063ad4117feb47e7b3f458ae7d,7/26/2019 16:09,7/27/2019 18:04,1,25.9,25.9,1,Vertical,8,418,0.555,1,0,years
063ad4117feb47e7b3f458ae7d,7/26/2019 16:09,7/27/2019 18:04,1,25.9,25.9,1,Vertical,-8,419,0.938,0,0,years
063ad4117feb47e7b3f458ae7d,7/26/2019 16:09,7/27/2019 18:04,1,25.9,25.9,1,Vertical,2,420,0.572,1,0,years
063ad4117feb47e7b3f458ae7d,7/26/2019 16:09,7/27/2019 18:04,1,25.9,25.9,1,Horizontal,10,421,0.806,1,0,years
063ad4117feb47e7b3f458ae7d,7/26/2019 16:09,7/27/2019 18:04,1,25.9,25.9,1,Horizontal,-6,422,0.486,0,0,years
063ad4117feb47e7b3f458ae7d,7/26/2019 16:09,7/27/2019 18:04,1,25.9,25.9,1,Horizontal,4,423,0.546,1,0,years
063ad4117feb47e7b3f458ae7d,7/26/2019 16:09,7/27/2019 18:04,1,25.9,25.9,1,Vertical,-6,424,1.257,0,0,years
063ad4117feb47e7b3f458ae7d,7/26/2019 16:09,7/27/2019 18:04,1,25.9,25.9,1,Vertical,-6,425,0.815,0,0,years
063ad4117feb47e7b3f458ae7d,7/26/2019 16:09,7/27/2019 18:04,1,25.9,25.9,1,Vertical,-10,426,0.522,0,0,years
063ad4117feb47e7b3f458ae7d,7/26/2019 16:09,7/27/2019 18:04,1,25.9,25.9,1,Horizontal,8,427,0.588,1,0,years
063ad4117feb47e7b3f458ae7d,7/26/2019 16:09,7/27/2019 18:04,1,25.9,25.9,1,Horizontal,-6,428,0.48,0,0,years
063ad4117feb47e7b3f458ae7d,7/26/2019 16:09,7/27/2019 18:04,1,25.9,25.9,1,Horizontal,-6,429,0.482,0,0,years
063ad4117feb47e7b3f458ae7d,7/26/2019 16:09,7/27/2019 18:04,1,25.9,25.9,1,Vertical,0,430,0.836,1,0,years
063ad4117feb47e7b3f458ae7d,7/26/2019 16:09,7/27/2019 18:04,1,25.9,25.9,1,Vertical,6,431,0.399,1,0,years
063ad4117feb47e7b3f458ae7d,7/26/2019 16:09,7/27/2019 18:04,1,25.9,25.9,1,Vertical,10,432,0.546,1,0,years
063ad4117feb47e7b3f458ae7d,7/26/2019 16:09,7/27/2019 18:04,1,25.9,25.9,1,Horizontal,0,433,0.634,0,0,years
063ad4117feb47e7b3f458ae7d,7/26/2019 16:09,7/27/2019 18:04,1,25.9,25.9,1,Horizontal,6,434,0.529,1,0,years
063ad4117feb47e7b3f458ae7d,7/26/2019 16:09,7/27/2019 18:04,1,25.9,25.9,1,Horizontal,2,435,1.577,1,0,years
063ad4117feb47e7b3f458ae7d,7/26/2019 16:09,7/27/2019 18:04,1,25.9,25.9,1,Vertical,-8,436,0.592,0,0,years
063ad4117feb47e7b3f458ae7d,7/26/2019 16:09,7/27/2019 18:04,1,25.9,25.9,1,Vertical,-4,437,0.805,1,0,years
063ad4117feb47e7b3f458ae7d,7/26/2019 16:09,7/27/2019 18:04,1,25.9,25.9,1,Vertical,8,438,0.538,1,0,years
063ad4117feb47e7b3f458ae7d,7/26/2019 16:09,7/27/2019 18:04,1,25.9,25.9,1,Horizontal,0,439,2.456,0,0,years
063ad4117feb47e7b3f458ae7d,7/26/2019 16:09,7/27/2019 18:04,1,25.9,25.9,1,Horizontal,-10,440,0.54,0,0,years
063ad4117feb47e7b3f458ae7d,7/26/2019 16:09,7/27/2019 18:04,1,25.9,25.9,1,Horizontal,-8,441,0.476,0,0,years
063ad4117feb47e7b3f458ae7d,7/26/2019 16:09,7/27/2019 18:04,1,25.9,25.9,1,Vertical,-8,442,0.756,0,0,years
063ad4117feb47e7b3f458ae7d,7/26/2019 16:09,7/27/2019 18:04,1,25.9,25.9,1,Vertical,4,443,0.855,1,0,years
063ad4117feb47e7b3f458ae7d,7/26/2019 16:09,7/27/2019 18:04,1,25.9,25.9,1,Vertical,4,444,0.815,1,0,years
063ad4117feb47e7b3f458ae7d,7/26/2019 16:09,7/27/2019 18:04,1,25.9,25.9,1,Horizontal,0,445,1.446,0,0,years
063ad4117feb47e7b3f458ae7d,7/26/2019 16:09,7/27/2019 18:04,1,25.9,25.9,1,Horizontal,10,446,0.55,1,0,years
063ad4117feb47e7b3f458ae7d,7/26/2019 16:09,7/27/2019 18:04,1,25.9,25.9,1,Horizontal,-2,447,1.095,0,0,years
063ad4117feb47e7b3f458ae7d,7/26/2019 16:09,7/27/2019 18:04,1,25.9,25.9,1,Vertical,0,448,1.31,0,0,years
063ad4117feb47e7b3f458ae7d,7/26/2019 16:09,7/27/2019 18:04,1,25.9,25.9,1,Vertical,4,449,0.628,1,0,years
063ad4117feb47e7b3f458ae7d,7/26/2019 16:09,7/27/2019 18:04,1,25.9,25.9,1,Vertical,8,450,0.611,1,0,years
063ad4117feb47e7b3f458ae7d,7/26/2019 16:09,7/27/2019 18:04,1,25.9,25.9,1,Horizontal,6,451,0.688,1,0,years
063ad4117feb47e7b3f458ae7d,7/26/2019 16:09,7/27/2019 18:04,1,25.9,25.9,1,Horizontal,-8,452,0.55,0,0,years
063ad4117feb47e7b3f458ae7d,7/26/2019 16:09,7/27/2019 18:04,1,25.9,25.9,1,Horizontal,-10,453,0.526,0,0,years
063ad4117feb47e7b3f458ae7d,7/26/2019 16:09,7/27/2019 18:04,1,25.9,25.9,1,Vertical,0,454,1.035,1,0,years
063ad4117feb47e7b3f458ae7d,7/26/2019 16:09,7/27/2019 18:04,1,25.9,25.9,1,Vertical,10,455,0.535,1,0,years
063ad4117feb47e7b3f458ae7d,7/26/2019 16:09,7/27/2019 18:04,1,25.9,25.9,1,Vertical,4,456,0.581,1,0,years
063ad4117feb47e7b3f458ae7d,7/26/2019 16:09,7/27/2019 18:04,1,25.9,25.9,1,Horizontal,0,457,1.33,0,0,years
063ad4117feb47e7b3f458ae7d,7/26/2019 16:09,7/27/2019 18:04,1,25.9,25.9,1,Horizontal,-4,458,0.52,0,0,years
063ad4117feb47e7b3f458ae7d,7/26/2019 16:09,7/27/2019 18:04,1,25.9,25.9,1,Horizontal,10,459,0.496,1,0,years
063ad4117feb47e7b3f458ae7d,7/26/2019 16:09,7/27/2019 18:04,1,25.9,25.9,1,Vertical,2,460,0.537,1,0,years
063ad4117feb47e7b3f458ae7d,7/26/2019 16:09,7/27/2019 18:04,1,25.9,25.9,1,Vertical,-4,461,0.642,0,0,years
063ad4117feb47e7b3f458ae7d,7/26/2019 16:09,7/27/2019 18:04,1,25.9,25.9,1,Vertical,-2,462,0.54,0,0,years
063ad4117feb47e7b3f458ae7d,7/26/2019 16:09,7/27/2019 18:04,1,25.9,25.9,1,Horizontal,0,463,0.667,0,0,years
063ad4117feb47e7b3f458ae7d,7/26/2019 16:09,7/27/2019 18:04,1,25.9,25.9,1,Horizontal,10,464,0.475,1,0,years
063ad4117feb47e7b3f458ae7d,7/26/2019 16:09,7/27/2019 18:04,1,25.9,25.9,1,Horizontal,-10,465,0.464,0,0,years
063ad4117feb47e7b3f458ae7d,7/26/2019 16:09,7/27/2019 18:04,1,25.9,25.9,1,Vertical,0,466,0.712,1,0,years
063ad4117feb47e7b3f458ae7d,7/26/2019 16:09,7/27/2019 18:04,1,25.9,25.9,1,Vertical,6,467,0.606,1,0,years
063ad4117feb47e7b3f458ae7d,7/26/2019 16:09,7/27/2019 18:04,1,25.9,25.9,1,Vertical,6,468,0.566,1,0,years
063ad4117feb47e7b3f458ae7d,7/26/2019 16:09,7/27/2019 18:04,1,25.9,25.9,1,Horizontal,-10,469,0.444,0,0,years
063ad4117feb47e7b3f458ae7d,7/26/2019 16:09,7/27/2019 18:04,1,25.9,25.9,1,Horizontal,10,470,0.485,1,0,years
063ad4117feb47e7b3f458ae7d,7/26/2019 16:09,7/27/2019 18:04,1,25.9,25.9,1,Horizontal,4,471,0.427,1,0,years
063ad4117feb47e7b3f458ae7d,7/26/2019 16:09,7/27/2019 18:04,1,25.9,25.9,1,Vertical,0,472,1.174,0,0,years
063ad4117feb47e7b3f458ae7d,7/26/2019 16:09,7/27/2019 18:04,1,25.9,25.9,1,Vertical,-6,473,0.743,0,0,years
063ad4117feb47e7b3f458ae7d,7/26/2019 16:09,7/27/2019 18:04,1,25.9,25.9,1,Vertical,-2,474,0.836,1,0,years
063ad4117feb47e7b3f458ae7d,7/26/2019 16:09,7/27/2019 18:04,1,25.9,25.9,1,Horizontal,-2,475,0.545,0,0,years
063ad4117feb47e7b3f458ae7d,7/26/2019 16:09,7/27/2019 18:04,1,25.9,25.9,1,Horizontal,-4,476,0.517,0,0,years
063ad4117feb47e7b3f458ae7d,7/26/2019 16:09,7/27/2019 18:04,1,25.9,25.9,1,Horizontal,-6,477,0.508,0,0,years
063ad4117feb47e7b3f458ae7d,7/26/2019 16:09,7/27/2019 18:04,1,25.9,25.9,1,Vertical,-10,478,0.904,0,0,years
063ad4117feb47e7b3f458ae7d,7/26/2019 16:09,7/27/2019 18:04,1,25.9,25.9,1,Vertical,10,479,0.589,1,0,years
063ad4117feb47e7b3f458ae7d,7/26/2019 16:09,7/27/2019 18:04,1,25.9,25.9,1,Vertical,-10,480,1.075,0,0,years
0d33a47950135c84f166a83cb2,7/26/2019 13:21,7/28/2019 3:00,1,37.6333,37.6333,1,Horizontal,10,1,0.673,1,1,years
0d33a47950135c84f166a83cb2,7/26/2019 13:21,7/28/2019 3:00,1,37.6333,37.6333,1,Horizontal,-6,2,0.457,0,1,years
0d33a47950135c84f166a83cb2,7/26/2019 13:21,7/28/2019 3:00,1,37.6333,37.6333,1,Horizontal,-10,3,0.496,0,1,years
0d33a47950135c84f166a83cb2,7/26/2019 13:21,7/28/2019 3:00,1,37.6333,37.6333,1,Vertical,-4,4,0.52,1,1,years
0d33a47950135c84f166a83cb2,7/26/2019 13:21,7/28/2019 3:00,1,37.6333,37.6333,1,Vertical,10,5,0.577,1,1,years
0d33a47950135c84f166a83cb2,7/26/2019 13:21,7/28/2019 3:00,1,37.6333,37.6333,1,Vertical,-10,6,0.612,0,1,years
0d33a47950135c84f166a83cb2,7/26/2019 13:21,7/28/2019 3:00,1,37.6333,37.6333,1,Horizontal,0,7,0.671,1,1,years
0d33a47950135c84f166a83cb2,7/26/2019 13:21,7/28/2019 3:00,1,37.6333,37.6333,1,Horizontal,-4,8,1.457,0,1,years
0d33a47950135c84f166a83cb2,7/26/2019 13:21,7/28/2019 3:00,1,37.6333,37.6333,1,Horizontal,-2,9,1.593,0,1,years
0d33a47950135c84f166a83cb2,7/26/2019 13:21,7/28/2019 3:00,1,37.6333,37.6333,1,Vertical,2,10,0.786,1,1,years
0d33a47950135c84f166a83cb2,7/26/2019 13:21,7/28/2019 3:00,1,37.6333,37.6333,1,Vertical,-4,11,0.744,0,1,years
0d33a47950135c84f166a83cb2,7/26/2019 13:21,7/28/2019 3:00,1,37.6333,37.6333,1,Vertical,6,12,0.707,1,1,years
0d33a47950135c84f166a83cb2,7/26/2019 13:21,7/28/2019 3:00,1,37.6333,37.6333,1,Horizontal,0,13,1.609,1,1,years
0d33a47950135c84f166a83cb2,7/26/2019 13:21,7/28/2019 3:00,1,37.6333,37.6333,1,Horizontal,-2,14,0.721,0,1,years
0d33a47950135c84f166a83cb2,7/26/2019 13:21,7/28/2019 3:00,1,37.6333,37.6333,1,Horizontal,10,15,0.841,1,1,years
0d33a47950135c84f166a83cb2,7/26/2019 13:21,7/28/2019 3:00,1,37.6333,37.6333,1,Vertical,0,16,1.956,1,1,years
0d33a47950135c84f166a83cb2,7/26/2019 13:21,7/28/2019 3:00,1,37.6333,37.6333,1,Vertical,2,17,0.944,1,1,years
0d33a47950135c84f166a83cb2,7/26/2019 13:21,7/28/2019 3:00,1,37.6333,37.6333,1,Vertical,-10,18,0.872,0,1,years
0d33a47950135c84f166a83cb2,7/26/2019 13:21,7/28/2019 3:00,1,37.6333,37.6333,1,Horizontal,4,19,0.577,1,1,years
0d33a47950135c84f166a83cb2,7/26/2019 13:21,7/28/2019 3:00,1,37.6333,37.6333,1,Horizontal,-8,20,0.818,0,1,years
0d33a47950135c84f166a83cb2,7/26/2019 13:21,7/28/2019 3:00,1,37.6333,37.6333,1,Horizontal,4,21,0.651,1,1,years
0d33a47950135c84f166a83cb2,7/26/2019 13:21,7/28/2019 3:00,1,37.6333,37.6333,1,Vertical,6,22,0.603,1,1,years
0d33a47950135c84f166a83cb2,7/26/2019 13:21,7/28/2019 3:00,1,37.6333,37.6333,1,Vertical,10,23,0.612,1,1,years
0d33a47950135c84f166a83cb2,7/26/2019 13:21,7/28/2019 3:00,1,37.6333,37.6333,1,Vertical,-2,24,1.477,0,1,years
0d33a47950135c84f166a83cb2,7/26/2019 13:21,7/28/2019 3:00,1,37.6333,37.6333,1,Horizontal,0,25,1.297,1,1,years
0d33a47950135c84f166a83cb2,7/26/2019 13:21,7/28/2019 3:00,1,37.6333,37.6333,1,Horizontal,4,26,0.554,1,1,years
0d33a47950135c84f166a83cb2,7/26/2019 13:21,7/28/2019 3:00,1,37.6333,37.6333,1,Horizontal,-4,27,0.552,0,1,years
0d33a47950135c84f166a83cb2,7/26/2019 13:21,7/28/2019 3:00,1,37.6333,37.6333,1,Vertical,0,28,0.657,1,1,years
0d33a47950135c84f166a83cb2,7/26/2019 13:21,7/28/2019 3:00,1,37.6333,37.6333,1,Vertical,-2,29,0.684,0,1,years
0d33a47950135c84f166a83cb2,7/26/2019 13:21,7/28/2019 3:00,1,37.6333,37.6333,1,Vertical,4,30,0.793,1,1,years
0d33a47950135c84f166a83cb2,7/26/2019 13:21,7/28/2019 3:00,1,37.6333,37.6333,1,Horizontal,-8,31,0.799,0,1,years
0d33a47950135c84f166a83cb2,7/26/2019 13:21,7/28/2019 3:00,1,37.6333,37.6333,1,Horizontal,-8,32,1.078,0,1,years
0d33a47950135c84f166a83cb2,7/26/2019 13:21,7/28/2019 3:00,1,37.6333,37.6333,1,Horizontal,6,33,0.826,1,1,years
0d33a47950135c84f166a83cb2,7/26/2019 13:21,7/28/2019 3:00,1,37.6333,37.6333,1,Vertical,-10,34,0.782,0,1,years
0d33a47950135c84f166a83cb2,7/26/2019 13:21,7/28/2019 3:00,1,37.6333,37.6333,1,Vertical,2,35,0.766,1,1,years
0d33a47950135c84f166a83cb2,7/26/2019 13:21,7/28/2019 3:00,1,37.6333,37.6333,1,Vertical,-2,36,0.763,0,1,years
0d33a47950135c84f166a83cb2,7/26/2019 13:21,7/28/2019 3:00,1,37.6333,37.6333,1,Horizontal,0,37,0.578,1,1,years
0d33a47950135c84f166a83cb2,7/26/2019 13:21,7/28/2019 3:00,1,37.6333,37.6333,1,Horizontal,-4,38,0.627,0,1,years
0d33a47950135c84f166a83cb2,7/26/2019 13:21,7/28/2019 3:00,1,37.6333,37.6333,1,Horizontal,-6,39,0.823,0,1,years
0d33a47950135c84f166a83cb2,7/26/2019 13:21,7/28/2019 3:00,1,37.6333,37.6333,1,Vertical,0,40,0.895,1,1,years
0d33a47950135c84f166a83cb2,7/26/2019 13:21,7/28/2019 3:00,1,37.6333,37.6333,1,Vertical,10,41,0.605,1,1,years
0d33a47950135c84f166a83cb2,7/26/2019 13:21,7/28/2019 3:00,1,37.6333,37.6333,1,Vertical,-4,42,0.678,0,1,years
0d33a47950135c84f166a83cb2,7/26/2019 13:21,7/28/2019 3:00,1,37.6333,37.6333,1,Horizontal,4,43,0.625,1,1,years
0d33a47950135c84f166a83cb2,7/26/2019 13:21,7/28/2019 3:00,1,37.6333,37.6333,1,Horizontal,6,44,0.588,1,1,years
0d33a47950135c84f166a83cb2,7/26/2019 13:21,7/28/2019 3:00,1,37.6333,37.6333,1,Horizontal,10,45,0.527,1,1,years
0d33a47950135c84f166a83cb2,7/26/2019 13:21,7/28/2019 3:00,1,37.6333,37.6333,1,Vertical,0,46,1.693,0,1,years
0d33a47950135c84f166a83cb2,7/26/2019 13:21,7/28/2019 3:00,1,37.6333,37.6333,1,Vertical,-8,47,0.486,0,1,years
0d33a47950135c84f166a83cb2,7/26/2019 13:21,7/28/2019 3:00,1,37.6333,37.6333,1,Vertical,8,48,0.75,1,1,years
0d33a47950135c84f166a83cb2,7/26/2019 13:21,7/28/2019 3:00,1,37.6333,37.6333,1,Horizontal,0,49,0.868,1,1,years
0d33a47950135c84f166a83cb2,7/26/2019 13:21,7/28/2019 3:00,1,37.6333,37.6333,1,Horizontal,2,50,0.523,1,1,years
0d33a47950135c84f166a83cb2,7/26/2019 13:21,7/28/2019 3:00,1,37.6333,37.6333,1,Horizontal,-2,51,0.961,0,1,years
0d33a47950135c84f166a83cb2,7/26/2019 13:21,7/28/2019 3:00,1,37.6333,37.6333,1,Vertical,4,52,0.873,1,1,years
0d33a47950135c84f166a83cb2,7/26/2019 13:21,7/28/2019 3:00,1,37.6333,37.6333,1,Vertical,-6,53,0.849,0,1,years
0d33a47950135c84f166a83cb2,7/26/2019 13:21,7/28/2019 3:00,1,37.6333,37.6333,1,Vertical,4,54,0.755,1,1,years
0d33a47950135c84f166a83cb2,7/26/2019 13:21,7/28/2019 3:00,1,37.6333,37.6333,1,Horizontal,-2,55,1.466,0,1,years
0d33a47950135c84f166a83cb2,7/26/2019 13:21,7/28/2019 3:00,1,37.6333,37.6333,1,Horizontal,-8,56,0.582,0,1,years
0d33a47950135c84f166a83cb2,7/26/2019 13:21,7/28/2019 3:00,1,37.6333,37.6333,1,Horizontal,2,57,1.697,1,1,years
0d33a47950135c84f166a83cb2,7/26/2019 13:21,7/28/2019 3:00,1,37.6333,37.6333,1,Vertical,0,58,0.697,0,1,years
0d33a47950135c84f166a83cb2,7/26/2019 13:21,7/28/2019 3:00,1,37.6333,37.6333,1,Vertical,4,59,0.63,1,1,years
0d33a47950135c84f166a83cb2,7/26/2019 13:21,7/28/2019 3:00,1,37.6333,37.6333,1,Vertical,6,60,0.538,1,1,years
0d33a47950135c84f166a83cb2,7/26/2019 13:21,7/28/2019 3:00,1,37.6333,37.6333,1,Horizontal,0,61,1.664,0,1,years
0d33a47950135c84f166a83cb2,7/26/2019 13:21,7/28/2019 3:00,1,37.6333,37.6333,1,Horizontal,6,62,0.512,1,1,years
0d33a47950135c84f166a83cb2,7/26/2019 13:21,7/28/2019 3:00,1,37.6333,37.6333,1,Horizontal,8,63,0.493,1,1,years
0d33a47950135c84f166a83cb2,7/26/2019 13:21,7/28/2019 3:00,1,37.6333,37.6333,1,Vertical,0,64,0.541,1,1,years
0d33a47950135c84f166a83cb2,7/26/2019 13:21,7/28/2019 3:00,1,37.6333,37.6333,1,Vertical,8,65,0.539,1,1,years
0d33a47950135c84f166a83cb2,7/26/2019 13:21,7/28/2019 3:00,1,37.6333,37.6333,1,Vertical,8,66,0.562,1,1,years
0d33a47950135c84f166a83cb2,7/26/2019 13:21,7/28/2019 3:00,1,37.6333,37.6333,1,Horizontal,0,67,1.035,1,1,years
0d33a47950135c84f166a83cb2,7/26/2019 13:21,7/28/2019 3:00,1,37.6333,37.6333,1,Horizontal,-10,68,0.566,0,1,years
0d33a47950135c84f166a83cb2,7/26/2019 13:21,7/28/2019 3:00,1,37.6333,37.6333,1,Horizontal,10,69,0.472,1,1,years
0d33a47950135c84f166a83cb2,7/26/2019 13:21,7/28/2019 3:00,1,37.6333,37.6333,1,Vertical,-6,70,0.608,0,1,years
0d33a47950135c84f166a83cb2,7/26/2019 13:21,7/28/2019 3:00,1,37.6333,37.6333,1,Vertical,-8,71,0.608,0,1,years
0d33a47950135c84f166a83cb2,7/26/2019 13:21,7/28/2019 3:00,1,37.6333,37.6333,1,Vertical,-2,72,0.575,0,1,years
0d33a47950135c84f166a83cb2,7/26/2019 13:21,7/28/2019 3:00,1,37.6333,37.6333,1,Horizontal,8,73,0.416,1,1,years
0d33a47950135c84f166a83cb2,7/26/2019 13:21,7/28/2019 3:00,1,37.6333,37.6333,1,Horizontal,-8,74,0.495,0,1,years
0d33a47950135c84f166a83cb2,7/26/2019 13:21,7/28/2019 3:00,1,37.6333,37.6333,1,Horizontal,-2,75,1.853,0,1,years
0d33a47950135c84f166a83cb2,7/26/2019 13:21,7/28/2019 3:00,1,37.6333,37.6333,1,Vertical,0,76,2.977,1,1,years
0d33a47950135c84f166a83cb2,7/26/2019 13:21,7/28/2019 3:00,1,37.6333,37.6333,1,Vertical,8,77,0.673,1,1,years
0d33a47950135c84f166a83cb2,7/26/2019 13:21,7/28/2019 3:00,1,37.6333,37.6333,1,Vertical,-8,78,0.991,0,1,years
0d33a47950135c84f166a83cb2,7/26/2019 13:21,7/28/2019 3:00,1,37.6333,37.6333,1,Horizontal,-6,79,1.023,0,1,years
0d33a47950135c84f166a83cb2,7/26/2019 13:21,7/28/2019 3:00,1,37.6333,37.6333,1,Horizontal,2,80,1.319,1,1,years
0d33a47950135c84f166a83cb2,7/26/2019 13:21,7/28/2019 3:00,1,37.6333,37.6333,1,Horizontal,6,81,0.589,1,1,years
0d33a47950135c84f166a83cb2,7/26/2019 13:21,7/28/2019 3:00,1,37.6333,37.6333,1,Vertical,-10,82,0.678,0,1,years
0d33a47950135c84f166a83cb2,7/26/2019 13:21,7/28/2019 3:00,1,37.6333,37.6333,1,Vertical,2,83,0.788,1,1,years
0d33a47950135c84f166a83cb2,7/26/2019 13:21,7/28/2019 3:00,1,37.6333,37.6333,1,Vertical,2,84,0.661,1,1,years
0d33a47950135c84f166a83cb2,7/26/2019 13:21,7/28/2019 3:00,1,37.6333,37.6333,1,Horizontal,0,85,1.57,0,1,years
0d33a47950135c84f166a83cb2,7/26/2019 13:21,7/28/2019 3:00,1,37.6333,37.6333,1,Horizontal,8,86,0.544,1,1,years
0d33a47950135c84f166a83cb2,7/26/2019 13:21,7/28/2019 3:00,1,37.6333,37.6333,1,Horizontal,-4,87,0.833,0,1,years
0d33a47950135c84f166a83cb2,7/26/2019 13:21,7/28/2019 3:00,1,37.6333,37.6333,1,Vertical,0,88,1.537,0,1,years
0d33a47950135c84f166a83cb2,7/26/2019 13:21,7/28/2019 3:00,1,37.6333,37.6333,1,Vertical,6,89,0.94,1,1,years
0d33a47950135c84f166a83cb2,7/26/2019 13:21,7/28/2019 3:00,1,37.6333,37.6333,1,Vertical,6,90,1.059,1,1,years
0d33a47950135c84f166a83cb2,7/26/2019 13:21,7/28/2019 3:00,1,37.6333,37.6333,1,Horizontal,0,91,2.735,0,1,years
0d33a47950135c84f166a83cb2,7/26/2019 13:21,7/28/2019 3:00,1,37.6333,37.6333,1,Horizontal,-6,92,0.582,0,1,years
0d33a47950135c84f166a83cb2,7/26/2019 13:21,7/28/2019 3:00,1,37.6333,37.6333,1,Horizontal,8,93,0.594,1,1,years
0d33a47950135c84f166a83cb2,7/26/2019 13:21,7/28/2019 3:00,1,37.6333,37.6333,1,Vertical,-6,94,0.946,0,1,years
0d33a47950135c84f166a83cb2,7/26/2019 13:21,7/28/2019 3:00,1,37.6333,37.6333,1,Vertical,-10,95,2.275,0,1,years
0d33a47950135c84f166a83cb2,7/26/2019 13:21,7/28/2019 3:00,1,37.6333,37.6333,1,Vertical,-8,96,0.63,0,1,years
0d33a47950135c84f166a83cb2,7/26/2019 13:21,7/28/2019 3:00,1,37.6333,37.6333,1,Horizontal,-4,97,0.932,0,1,years
0d33a47950135c84f166a83cb2,7/26/2019 13:21,7/28/2019 3:00,1,37.6333,37.6333,1,Horizontal,-10,98,0.536,0,1,years
0d33a47950135c84f166a83cb2,7/26/2019 13:21,7/28/2019 3:00,1,37.6333,37.6333,1,Horizontal,2,99,0.849,1,1,years
0d33a47950135c84f166a83cb2,7/26/2019 13:21,7/28/2019 3:00,1,37.6333,37.6333,1,Vertical,0,100,1.274,0,1,years
0d33a47950135c84f166a83cb2,7/26/2019 13:21,7/28/2019 3:00,1,37.6333,37.6333,1,Vertical,-4,101,0.776,0,1,years
0d33a47950135c84f166a83cb2,7/26/2019 13:21,7/28/2019 3:00,1,37.6333,37.6333,1,Vertical,-4,102,0.666,0,1,years
0d33a47950135c84f166a83cb2,7/26/2019 13:21,7/28/2019 3:00,1,37.6333,37.6333,1,Horizontal,4,103,0.557,1,1,years
0d33a47950135c84f166a83cb2,7/26/2019 13:21,7/28/2019 3:00,1,37.6333,37.6333,1,Horizontal,-6,104,0.538,0,1,years
0d33a47950135c84f166a83cb2,7/26/2019 13:21,7/28/2019 3:00,1,37.6333,37.6333,1,Horizontal,-10,105,0.532,0,1,years
0d33a47950135c84f166a83cb2,7/26/2019 13:21,7/28/2019 3:00,1,37.6333,37.6333,1,Vertical,-6,106,0.69,0,1,years
0d33a47950135c84f166a83cb2,7/26/2019 13:21,7/28/2019 3:00,1,37.6333,37.6333,1,Vertical,8,107,0.736,1,1,years
0d33a47950135c84f166a83cb2,7/26/2019 13:21,7/28/2019 3:00,1,37.6333,37.6333,1,Vertical,4,108,0.756,1,1,years
0d33a47950135c84f166a83cb2,7/26/2019 13:21,7/28/2019 3:00,1,37.6333,37.6333,1,Horizontal,2,109,1.011,1,1,years
0d33a47950135c84f166a83cb2,7/26/2019 13:21,7/28/2019 3:00,1,37.6333,37.6333,1,Horizontal,8,110,0.593,1,1,years
0d33a47950135c84f166a83cb2,7/26/2019 13:21,7/28/2019 3:00,1,37.6333,37.6333,1,Horizontal,-10,111,0.709,0,1,years
0d33a47950135c84f166a83cb2,7/26/2019 13:21,7/28/2019 3:00,1,37.6333,37.6333,1,Vertical,-8,112,0.632,0,1,years
0d33a47950135c84f166a83cb2,7/26/2019 13:21,7/28/2019 3:00,1,37.6333,37.6333,1,Vertical,-2,113,1.424,0,1,years
0d33a47950135c84f166a83cb2,7/26/2019 13:21,7/28/2019 3:00,1,37.6333,37.6333,1,Vertical,-6,114,0.848,0,1,years
0d33a47950135c84f166a83cb2,7/26/2019 13:21,7/28/2019 3:00,1,37.6333,37.6333,1,Horizontal,0,115,1.016,0,1,years
0d33a47950135c84f166a83cb2,7/26/2019 13:21,7/28/2019 3:00,1,37.6333,37.6333,1,Horizontal,10,116,0.562,1,1,years
0d33a47950135c84f166a83cb2,7/26/2019 13:21,7/28/2019 3:00,1,37.6333,37.6333,1,Horizontal,6,117,0.55,1,1,years
0d33a47950135c84f166a83cb2,7/26/2019 13:21,7/28/2019 3:00,1,37.6333,37.6333,1,Vertical,0,118,1.144,1,1,years
0d33a47950135c84f166a83cb2,7/26/2019 13:21,7/28/2019 3:00,1,37.6333,37.6333,1,Vertical,10,119,0.669,1,1,years
0d33a47950135c84f166a83cb2,7/26/2019 13:21,7/28/2019 3:00,1,37.6333,37.6333,1,Vertical,10,120,0.669,1,1,years
0d33a47950135c84f166a83cb2,7/26/2019 13:21,7/28/2019 3:00,1,37.6333,37.6333,1,Horizontal,6,121,0.666,1,1,years
0d33a47950135c84f166a83cb2,7/26/2019 13:21,7/28/2019 3:00,1,37.6333,37.6333,1,Horizontal,-2,122,1.758,0,1,years
0d33a47950135c84f166a83cb2,7/26/2019 13:21,7/28/2019 3:00,1,37.6333,37.6333,1,Horizontal,4,123,0.655,1,1,years
0d33a47950135c84f166a83cb2,7/26/2019 13:21,7/28/2019 3:00,1,37.6333,37.6333,1,Vertical,0,124,1.654,0,1,years
0d33a47950135c84f166a83cb2,7/26/2019 13:21,7/28/2019 3:00,1,37.6333,37.6333,1,Vertical,6,125,0.681,1,1,years
0d33a47950135c84f166a83cb2,7/26/2019 13:21,7/28/2019 3:00,1,37.6333,37.6333,1,Vertical,-6,126,0.631,0,1,years
0d33a47950135c84f166a83cb2,7/26/2019 13:21,7/28/2019 3:00,1,37.6333,37.6333,1,Horizontal,0,127,3.327,1,1,years
0d33a47950135c84f166a83cb2,7/26/2019 13:21,7/28/2019 3:00,1,37.6333,37.6333,1,Horizontal,6,128,0.537,1,1,years
0d33a47950135c84f166a83cb2,7/26/2019 13:21,7/28/2019 3:00,1,37.6333,37.6333,1,Horizontal,6,129,0.671,1,1,years
0d33a47950135c84f166a83cb2,7/26/2019 13:21,7/28/2019 3:00,1,37.6333,37.6333,1,Vertical,-2,130,0.982,0,1,years
0d33a47950135c84f166a83cb2,7/26/2019 13:21,7/28/2019 3:00,1,37.6333,37.6333,1,Vertical,6,131,0.629,1,1,years
0d33a47950135c84f166a83cb2,7/26/2019 13:21,7/28/2019 3:00,1,37.6333,37.6333,1,Vertical,4,132,0.766,1,1,years
0d33a47950135c84f166a83cb2,7/26/2019 13:21,7/28/2019 3:00,1,37.6333,37.6333,1,Horizontal,0,133,0.572,1,1,years
0d33a47950135c84f166a83cb2,7/26/2019 13:21,7/28/2019 3:00,1,37.6333,37.6333,1,Horizontal,-2,134,0.861,0,1,years
0d33a47950135c84f166a83cb2,7/26/2019 13:21,7/28/2019 3:00,1,37.6333,37.6333,1,Horizontal,-4,135,1.001,0,1,years
0d33a47950135c84f166a83cb2,7/26/2019 13:21,7/28/2019 3:00,1,37.6333,37.6333,1,Vertical,0,136,4.469,1,1,years
0d33a47950135c84f166a83cb2,7/26/2019 13:21,7/28/2019 3:00,1,37.6333,37.6333,1,Vertical,2,137,0.683,1,1,years
0d33a47950135c84f166a83cb2,7/26/2019 13:21,7/28/2019 3:00,1,37.6333,37.6333,1,Vertical,10,138,0.553,1,1,years
0d33a47950135c84f166a83cb2,7/26/2019 13:21,7/28/2019 3:00,1,37.6333,37.6333,1,Horizontal,-6,139,0.578,0,1,years
0d33a47950135c84f166a83cb2,7/26/2019 13:21,7/28/2019 3:00,1,37.6333,37.6333,1,Horizontal,8,140,0.586,1,1,years
0d33a47950135c84f166a83cb2,7/26/2019 13:21,7/28/2019 3:00,1,37.6333,37.6333,1,Horizontal,4,141,0.61,1,1,years
0d33a47950135c84f166a83cb2,7/26/2019 13:21,7/28/2019 3:00,1,37.6333,37.6333,1,Vertical,0,142,1.198,0,1,years
0d33a47950135c84f166a83cb2,7/26/2019 13:21,7/28/2019 3:00,1,37.6333,37.6333,1,Vertical,-4,143,0.724,0,1,years
0d33a47950135c84f166a83cb2,7/26/2019 13:21,7/28/2019 3:00,1,37.6333,37.6333,1,Vertical,2,144,1.107,1,1,years
0d33a47950135c84f166a83cb2,7/26/2019 13:21,7/28/2019 3:00,1,37.6333,37.6333,1,Horizontal,0,145,1.179,0,1,years
0d33a47950135c84f166a83cb2,7/26/2019 13:21,7/28/2019 3:00,1,37.6333,37.6333,1,Horizontal,2,146,0.672,1,1,years
0d33a47950135c84f166a83cb2,7/26/2019 13:21,7/28/2019 3:00,1,37.6333,37.6333,1,Horizontal,2,147,1.423,1,1,years
0d33a47950135c84f166a83cb2,7/26/2019 13:21,7/28/2019 3:00,1,37.6333,37.6333,1,Vertical,-8,148,0.662,0,1,years
0d33a47950135c84f166a83cb2,7/26/2019 13:21,7/28/2019 3:00,1,37.6333,37.6333,1,Vertical,-10,149,0.781,0,1,years
0d33a47950135c84f166a83cb2,7/26/2019 13:21,7/28/2019 3:00,1,37.6333,37.6333,1,Vertical,-2,150,1.338,0,1,years
0d33a47950135c84f166a83cb2,7/26/2019 13:21,7/28/2019 3:00,1,37.6333,37.6333,1,Horizontal,-4,151,0.7,0,1,years
0d33a47950135c84f166a83cb2,7/26/2019 13:21,7/28/2019 3:00,1,37.6333,37.6333,1,Horizontal,-10,152,0.538,0,1,years
0d33a47950135c84f166a83cb2,7/26/2019 13:21,7/28/2019 3:00,1,37.6333,37.6333,1,Horizontal,2,153,1.412,1,1,years
0d33a47950135c84f166a83cb2,7/26/2019 13:21,7/28/2019 3:00,1,37.6333,37.6333,1,Vertical,0,154,0.913,0,1,years
0d33a47950135c84f166a83cb2,7/26/2019 13:21,7/28/2019 3:00,1,37.6333,37.6333,1,Vertical,-8,155,0.638,0,1,years
0d33a47950135c84f166a83cb2,7/26/2019 13:21,7/28/2019 3:00,1,37.6333,37.6333,1,Vertical,2,156,1.075,1,1,years
0d33a47950135c84f166a83cb2,7/26/2019 13:21,7/28/2019 3:00,1,37.6333,37.6333,1,Horizontal,0,157,1.41,0,1,years
0d33a47950135c84f166a83cb2,7/26/2019 13:21,7/28/2019 3:00,1,37.6333,37.6333,1,Horizontal,4,158,0.637,1,1,years
0d33a47950135c84f166a83cb2,7/26/2019 13:21,7/28/2019 3:00,1,37.6333,37.6333,1,Horizontal,-2,159,1.797,0,1,years
0d33a47950135c84f166a83cb2,7/26/2019 13:21,7/28/2019 3:00,1,37.6333,37.6333,1,Vertical,8,160,0.689,1,1,years
0d33a47950135c84f166a83cb2,7/26/2019 13:21,7/28/2019 3:00,1,37.6333,37.6333,1,Vertical,-6,161,0.665,0,1,years
0d33a47950135c84f166a83cb2,7/26/2019 13:21,7/28/2019 3:00,1,37.6333,37.6333,1,Vertical,-4,162,1.89,0,1,years
0d33a47950135c84f166a83cb2,7/26/2019 13:21,7/28/2019 3:00,1,37.6333,37.6333,1,Horizontal,2,163,1.975,1,1,years
0d33a47950135c84f166a83cb2,7/26/2019 13:21,7/28/2019 3:00,1,37.6333,37.6333,1,Horizontal,8,164,0.645,1,1,years
0d33a47950135c84f166a83cb2,7/26/2019 13:21,7/28/2019 3:00,1,37.6333,37.6333,1,Horizontal,-8,165,0.647,0,1,years
0d33a47950135c84f166a83cb2,7/26/2019 13:21,7/28/2019 3:00,1,37.6333,37.6333,1,Vertical,-10,166,0.611,0,1,years
0d33a47950135c84f166a83cb2,7/26/2019 13:21,7/28/2019 3:00,1,37.6333,37.6333,1,Vertical,10,167,0.724,1,1,years
0d33a47950135c84f166a83cb2,7/26/2019 13:21,7/28/2019 3:00,1,37.6333,37.6333,1,Vertical,-4,168,0.902,0,1,years
0d33a47950135c84f166a83cb2,7/26/2019 13:21,7/28/2019 3:00,1,37.6333,37.6333,1,Horizontal,8,169,0.595,1,1,years
0d33a47950135c84f166a83cb2,7/26/2019 13:21,7/28/2019 3:00,1,37.6333,37.6333,1,Horizontal,8,170,0.71,1,1,years
0d33a47950135c84f166a83cb2,7/26/2019 13:21,7/28/2019 3:00,1,37.6333,37.6333,1,Horizontal,-8,171,0.565,0,1,years
0d33a47950135c84f166a83cb2,7/26/2019 13:21,7/28/2019 3:00,1,37.6333,37.6333,1,Vertical,0,172,1.637,0,1,years
0d33a47950135c84f166a83cb2,7/26/2019 13:21,7/28/2019 3:00,1,37.6333,37.6333,1,Vertical,8,173,0.525,1,1,years
0d33a47950135c84f166a83cb2,7/26/2019 13:21,7/28/2019 3:00,1,37.6333,37.6333,1,Vertical,-2,174,1.074,0,1,years
0d33a47950135c84f166a83cb2,7/26/2019 13:21,7/28/2019 3:00,1,37.6333,37.6333,1,Horizontal,0,175,0.939,0,1,years
0d33a47950135c84f166a83cb2,7/26/2019 13:21,7/28/2019 3:00,1,37.6333,37.6333,1,Horizontal,-8,176,0.53,0,1,years
0d33a47950135c84f166a83cb2,7/26/2019 13:21,7/28/2019 3:00,1,37.6333,37.6333,1,Horizontal,-4,177,0.829,0,1,years
0d33a47950135c84f166a83cb2,7/26/2019 13:21,7/28/2019 3:00,1,37.6333,37.6333,1,Vertical,8,178,0.786,1,1,years
0d33a47950135c84f166a83cb2,7/26/2019 13:21,7/28/2019 3:00,1,37.6333,37.6333,1,Vertical,-8,179,0.643,0,1,years
0d33a47950135c84f166a83cb2,7/26/2019 13:21,7/28/2019 3:00,1,37.6333,37.6333,1,Vertical,2,180,1.346,1,1,years
0d33a47950135c84f166a83cb2,7/26/2019 13:21,7/28/2019 3:00,1,37.6333,37.6333,1,Horizontal,10,181,0.768,1,1,years
0d33a47950135c84f166a83cb2,7/26/2019 13:21,7/28/2019 3:00,1,37.6333,37.6333,1,Horizontal,-6,182,0.798,0,1,years
0d33a47950135c84f166a83cb2,7/26/2019 13:21,7/28/2019 3:00,1,37.6333,37.6333,1,Horizontal,4,183,0.579,1,1,years
0d33a47950135c84f166a83cb2,7/26/2019 13:21,7/28/2019 3:00,1,37.6333,37.6333,1,Vertical,-6,184,0.85,0,1,years
0d33a47950135c84f166a83cb2,7/26/2019 13:21,7/28/2019 3:00,1,37.6333,37.6333,1,Vertical,-6,185,0.653,0,1,years
0d33a47950135c84f166a83cb2,7/26/2019 13:21,7/28/2019 3:00,1,37.6333,37.6333,1,Vertical,-10,186,0.576,0,1,years
0d33a47950135c84f166a83cb2,7/26/2019 13:21,7/28/2019 3:00,1,37.6333,37.6333,1,Horizontal,8,187,0.569,1,1,years
0d33a47950135c84f166a83cb2,7/26/2019 13:21,7/28/2019 3:00,1,37.6333,37.6333,1,Horizontal,-6,188,0.822,0,1,years
0d33a47950135c84f166a83cb2,7/26/2019 13:21,7/28/2019 3:00,1,37.6333,37.6333,1,Horizontal,-6,189,0.76,0,1,years
0d33a47950135c84f166a83cb2,7/26/2019 13:21,7/28/2019 3:00,1,37.6333,37.6333,1,Vertical,0,190,1.105,1,1,years
0d33a47950135c84f166a83cb2,7/26/2019 13:21,7/28/2019 3:00,1,37.6333,37.6333,1,Vertical,6,191,0.577,1,1,years
0d33a47950135c84f166a83cb2,7/26/2019 13:21,7/28/2019 3:00,1,37.6333,37.6333,1,Vertical,10,192,0.779,1,1,years
0d33a47950135c84f166a83cb2,7/26/2019 13:21,7/28/2019 3:00,1,37.6333,37.6333,1,Horizontal,0,193,2.56,0,1,years
0d33a47950135c84f166a83cb2,7/26/2019 13:21,7/28/2019 3:00,1,37.6333,37.6333,1,Horizontal,6,194,0.573,1,1,years
0d33a47950135c84f166a83cb2,7/26/2019 13:21,7/28/2019 3:00,1,37.6333,37.6333,1,Horizontal,2,195,1.071,1,1,years
0d33a47950135c84f166a83cb2,7/26/2019 13:21,7/28/2019 3:00,1,37.6333,37.6333,1,Vertical,-8,196,0.611,0,1,years
0d33a47950135c84f166a83cb2,7/26/2019 13:21,7/28/2019 3:00,1,37.6333,37.6333,1,Vertical,-4,197,1.121,0,1,years
0d33a47950135c84f166a83cb2,7/26/2019 13:21,7/28/2019 3:00,1,37.6333,37.6333,1,Vertical,8,198,0.801,1,1,years
0d33a47950135c84f166a83cb2,7/26/2019 13:21,7/28/2019 3:00,1,37.6333,37.6333,1,Horizontal,0,199,0.841,0,1,years
0d33a47950135c84f166a83cb2,7/26/2019 13:21,7/28/2019 3:00,1,37.6333,37.6333,1,Horizontal,-10,200,0.719,0,1,years
0d33a47950135c84f166a83cb2,7/26/2019 13:21,7/28/2019 3:00,1,37.6333,37.6333,1,Horizontal,-8,201,0.541,0,1,years
0d33a47950135c84f166a83cb2,7/26/2019 13:21,7/28/2019 3:00,1,37.6333,37.6333,1,Vertical,-8,202,0.689,0,1,years
0d33a47950135c84f166a83cb2,7/26/2019 13:21,7/28/2019 3:00,1,37.6333,37.6333,1,Vertical,4,203,0.927,1,1,years
0d33a47950135c84f166a83cb2,7/26/2019 13:21,7/28/2019 3:00,1,37.6333,37.6333,1,Vertical,4,204,1.135,1,1,years
0d33a47950135c84f166a83cb2,7/26/2019 13:21,7/28/2019 3:00,1,37.6333,37.6333,1,Horizontal,0,205,0.657,1,1,years
0d33a47950135c84f166a83cb2,7/26/2019 13:21,7/28/2019 3:00,1,37.6333,37.6333,1,Horizontal,10,206,0.52,1,1,years
0d33a47950135c84f166a83cb2,7/26/2019 13:21,7/28/2019 3:00,1,37.6333,37.6333,1,Horizontal,-2,207,1.291,0,1,years
0d33a47950135c84f166a83cb2,7/26/2019 13:21,7/28/2019 3:00,1,37.6333,37.6333,1,Vertical,0,208,1.071,0,1,years
0d33a47950135c84f166a83cb2,7/26/2019 13:21,7/28/2019 3:00,1,37.6333,37.6333,1,Vertical,4,209,0.8,1,1,years
0d33a47950135c84f166a83cb2,7/26/2019 13:21,7/28/2019 3:00,1,37.6333,37.6333,1,Vertical,8,210,0.637,1,1,years
0d33a47950135c84f166a83cb2,7/26/2019 13:21,7/28/2019 3:00,1,37.6333,37.6333,1,Horizontal,6,211,0.801,1,1,years
0d33a47950135c84f166a83cb2,7/26/2019 13:21,7/28/2019 3:00,1,37.6333,37.6333,1,Horizontal,-8,212,0.798,0,1,years
0d33a47950135c84f166a83cb2,7/26/2019 13:21,7/28/2019 3:00,1,37.6333,37.6333,1,Horizontal,-10,213,0.569,0,1,years
0d33a47950135c84f166a83cb2,7/26/2019 13:21,7/28/2019 3:00,1,37.6333,37.6333,1,Vertical,0,214,2.127,1,1,years
0d33a47950135c84f166a83cb2,7/26/2019 13:21,7/28/2019 3:00,1,37.6333,37.6333,1,Vertical,10,215,0.585,1,1,years
0d33a47950135c84f166a83cb2,7/26/2019 13:21,7/28/2019 3:00,1,37.6333,37.6333,1,Vertical,4,216,0.718,1,1,years
0d33a47950135c84f166a83cb2,7/26/2019 13:21,7/28/2019 3:00,1,37.6333,37.6333,1,Horizontal,0,217,1.539,0,1,years
0d33a47950135c84f166a83cb2,7/26/2019 13:21,7/28/2019 3:00,1,37.6333,37.6333,1,Horizontal,-4,218,0.523,0,1,years
0d33a47950135c84f166a83cb2,7/26/2019 13:21,7/28/2019 3:00,1,37.6333,37.6333,1,Horizontal,10,219,0.523,1,1,years
0d33a47950135c84f166a83cb2,7/26/2019 13:21,7/28/2019 3:00,1,37.6333,37.6333,1,Vertical,2,220,0.87,1,1,years
0d33a47950135c84f166a83cb2,7/26/2019 13:21,7/28/2019 3:00,1,37.6333,37.6333,1,Vertical,-4,221,1.315,0,1,years
0d33a47950135c84f166a83cb2,7/26/2019 13:21,7/28/2019 3:00,1,37.6333,37.6333,1,Vertical,-2,222,0.665,0,1,years
0d33a47950135c84f166a83cb2,7/26/2019 13:21,7/28/2019 3:00,1,37.6333,37.6333,1,Horizontal,0,223,2.036,0,1,years
0d33a47950135c84f166a83cb2,7/26/2019 13:21,7/28/2019 3:00,1,37.6333,37.6333,1,Horizontal,10,224,0.596,1,1,years
0d33a47950135c84f166a83cb2,7/26/2019 13:21,7/28/2019 3:00,1,37.6333,37.6333,1,Horizontal,-10,225,0.605,0,1,years
0d33a47950135c84f166a83cb2,7/26/2019 13:21,7/28/2019 3:00,1,37.6333,37.6333,1,Vertical,0,226,1.032,0,1,years
0d33a47950135c84f166a83cb2,7/26/2019 13:21,7/28/2019 3:00,1,37.6333,37.6333,1,Vertical,6,227,0.809,1,1,years
0d33a47950135c84f166a83cb2,7/26/2019 13:21,7/28/2019 3:00,1,37.6333,37.6333,1,Vertical,6,228,0.628,1,1,years
0d33a47950135c84f166a83cb2,7/26/2019 13:21,7/28/2019 3:00,1,37.6333,37.6333,1,Horizontal,-10,229,0.617,0,1,years
0d33a47950135c84f166a83cb2,7/26/2019 13:21,7/28/2019 3:00,1,37.6333,37.6333,1,Horizontal,10,230,0.606,1,1,years
0d33a47950135c84f166a83cb2,7/26/2019 13:21,7/28/2019 3:00,1,37.6333,37.6333,1,Horizontal,4,231,0.557,1,1,years
0d33a47950135c84f166a83cb2,7/26/2019 13:21,7/28/2019 3:00,1,37.6333,37.6333,1,Vertical,0,232,2.186,0,1,years
0d33a47950135c84f166a83cb2,7/26/2019 13:21,7/28/2019 3:00,1,37.6333,37.6333,1,Vertical,-6,233,0.742,0,1,years
0d33a47950135c84f166a83cb2,7/26/2019 13:21,7/28/2019 3:00,1,37.6333,37.6333,1,Vertical,-2,234,3.169,0,1,years
0d33a47950135c84f166a83cb2,7/26/2019 13:21,7/28/2019 3:00,1,37.6333,37.6333,1,Horizontal,-2,235,1.438,0,1,years
0d33a47950135c84f166a83cb2,7/26/2019 13:21,7/28/2019 3:00,1,37.6333,37.6333,1,Horizontal,-4,236,0.655,0,1,years
0d33a47950135c84f166a83cb2,7/26/2019 13:21,7/28/2019 3:00,1,37.6333,37.6333,1,Horizontal,-6,237,1.409,0,1,years
0d33a47950135c84f166a83cb2,7/26/2019 13:21,7/28/2019 3:00,1,37.6333,37.6333,1,Vertical,-10,238,1.051,0,1,years
0d33a47950135c84f166a83cb2,7/26/2019 13:21,7/28/2019 3:00,1,37.6333,37.6333,1,Vertical,10,239,0.947,1,1,years
0d33a47950135c84f166a83cb2,7/26/2019 13:21,7/28/2019 3:00,1,37.6333,37.6333,1,Vertical,-10,240,1.022,0,1,years
0d33a47950135c84f166a83cb2,7/26/2019 13:21,7/28/2019 3:00,1,37.6333,37.6333,1,Horizontal,10,241,0.635,1,1,years
0d33a47950135c84f166a83cb2,7/26/2019 13:21,7/28/2019 3:00,1,37.6333,37.6333,1,Horizontal,-6,242,0.565,0,1,years
0d33a47950135c84f166a83cb2,7/26/2019 13:21,7/28/2019 3:00,1,37.6333,37.6333,1,Horizontal,-10,243,0.48,0,1,years
0d33a47950135c84f166a83cb2,7/26/2019 13:21,7/28/2019 3:00,1,37.6333,37.6333,1,Vertical,-4,244,0.72,0,1,years
0d33a47950135c84f166a83cb2,7/26/2019 13:21,7/28/2019 3:00,1,37.6333,37.6333,1,Vertical,10,245,0.792,1,1,years
0d33a47950135c84f166a83cb2,7/26/2019 13:21,7/28/2019 3:00,1,37.6333,37.6333,1,Vertical,-10,246,0.647,0,1,years
0d33a47950135c84f166a83cb2,7/26/2019 13:21,7/28/2019 3:00,1,37.6333,37.6333,1,Horizontal,0,247,1.697,0,1,years
0d33a47950135c84f166a83cb2,7/26/2019 13:21,7/28/2019 3:00,1,37.6333,37.6333,1,Horizontal,-4,248,0.967,0,1,years
0d33a47950135c84f166a83cb2,7/26/2019 13:21,7/28/2019 3:00,1,37.6333,37.6333,1,Horizontal,-2,249,1.33,0,1,years
0d33a47950135c84f166a83cb2,7/26/2019 13:21,7/28/2019 3:00,1,37.6333,37.6333,1,Vertical,2,250,2.259,1,1,years
0d33a47950135c84f166a83cb2,7/26/2019 13:21,7/28/2019 3:00,1,37.6333,37.6333,1,Vertical,-4,251,0.912,0,1,years
0d33a47950135c84f166a83cb2,7/26/2019 13:21,7/28/2019 3:00,1,37.6333,37.6333,1,Vertical,6,252,0.774,1,1,years
0d33a47950135c84f166a83cb2,7/26/2019 13:21,7/28/2019 3:00,1,37.6333,37.6333,1,Horizontal,0,253,1.278,0,1,years
0d33a47950135c84f166a83cb2,7/26/2019 13:21,7/28/2019 3:00,1,37.6333,37.6333,1,Horizontal,-2,254,0.649,0,1,years
0d33a47950135c84f166a83cb2,7/26/2019 13:21,7/28/2019 3:00,1,37.6333,37.6333,1,Horizontal,10,255,0.566,1,1,years
0d33a47950135c84f166a83cb2,7/26/2019 13:21,7/28/2019 3:00,1,37.6333,37.6333,1,Vertical,0,256,4.488,0,1,years
0d33a47950135c84f166a83cb2,7/26/2019 13:21,7/28/2019 3:00,1,37.6333,37.6333,1,Vertical,2,257,1.367,1,1,years
0d33a47950135c84f166a83cb2,7/26/2019 13:21,7/28/2019 3:00,1,37.6333,37.6333,1,Vertical,-10,258,0.661,0,1,years
0d33a47950135c84f166a83cb2,7/26/2019 13:21,7/28/2019 3:00,1,37.6333,37.6333,1,Horizontal,4,259,0.576,1,1,years
0d33a47950135c84f166a83cb2,7/26/2019 13:21,7/28/2019 3:00,1,37.6333,37.6333,1,Horizontal,-8,260,0.604,0,1,years
0d33a47950135c84f166a83cb2,7/26/2019 13:21,7/28/2019 3:00,1,37.6333,37.6333,1,Horizontal,4,261,0.553,1,1,years
0d33a47950135c84f166a83cb2,7/26/2019 13:21,7/28/2019 3:00,1,37.6333,37.6333,1,Vertical,6,262,0.828,1,1,years
0d33a47950135c84f166a83cb2,7/26/2019 13:21,7/28/2019 3:00,1,37.6333,37.6333,1,Vertical,10,263,0.639,1,1,years
0d33a47950135c84f166a83cb2,7/26/2019 13:21,7/28/2019 3:00,1,37.6333,37.6333,1,Vertical,-2,264,0.761,0,1,years
0d33a47950135c84f166a83cb2,7/26/2019 13:21,7/28/2019 3:00,1,37.6333,37.6333,1,Horizontal,0,265,1.596,0,1,years
0d33a47950135c84f166a83cb2,7/26/2019 13:21,7/28/2019 3:00,1,37.6333,37.6333,1,Horizontal,4,266,0.711,1,1,years
0d33a47950135c84f166a83cb2,7/26/2019 13:21,7/28/2019 3:00,1,37.6333,37.6333,1,Horizontal,-4,267,0.775,0,1,years
0d33a47950135c84f166a83cb2,7/26/2019 13:21,7/28/2019 3:00,1,37.6333,37.6333,1,Vertical,0,268,1.618,0,1,years
0d33a47950135c84f166a83cb2,7/26/2019 13:21,7/28/2019 3:00,1,37.6333,37.6333,1,Vertical,-2,269,0.962,0,1,years
0d33a47950135c84f166a83cb2,7/26/2019 13:21,7/28/2019 3:00,1,37.6333,37.6333,1,Vertical,4,270,0.768,1,1,years
0d33a47950135c84f166a83cb2,7/26/2019 13:21,7/28/2019 3:00,1,37.6333,37.6333,1,Horizontal,-8,271,0.702,0,1,years
0d33a47950135c84f166a83cb2,7/26/2019 13:21,7/28/2019 3:00,1,37.6333,37.6333,1,Horizontal,-8,272,0.604,0,1,years
0d33a47950135c84f166a83cb2,7/26/2019 13:21,7/28/2019 3:00,1,37.6333,37.6333,1,Horizontal,6,273,0.545,1,1,years
0d33a47950135c84f166a83cb2,7/26/2019 13:21,7/28/2019 3:00,1,37.6333,37.6333,1,Vertical,-10,274,0.6,0,1,years
0d33a47950135c84f166a83cb2,7/26/2019 13:21,7/28/2019 3:00,1,37.6333,37.6333,1,Vertical,2,275,1.71,1,1,years
0d33a47950135c84f166a83cb2,7/26/2019 13:21,7/28/2019 3:00,1,37.6333,37.6333,1,Vertical,-2,276,1.872,1,1,years
0d33a47950135c84f166a83cb2,7/26/2019 13:21,7/28/2019 3:00,1,37.6333,37.6333,1,Horizontal,0,277,0.841,0,1,years
0d33a47950135c84f166a83cb2,7/26/2019 13:21,7/28/2019 3:00,1,37.6333,37.6333,1,Horizontal,-4,278,1.026,0,1,years
0d33a47950135c84f166a83cb2,7/26/2019 13:21,7/28/2019 3:00,1,37.6333,37.6333,1,Horizontal,-6,279,0.938,0,1,years
0d33a47950135c84f166a83cb2,7/26/2019 13:21,7/28/2019 3:00,1,37.6333,37.6333,1,Vertical,0,280,3.887,1,1,years
0d33a47950135c84f166a83cb2,7/26/2019 13:21,7/28/2019 3:00,1,37.6333,37.6333,1,Vertical,10,281,0.624,1,1,years
0d33a47950135c84f166a83cb2,7/26/2019 13:21,7/28/2019 3:00,1,37.6333,37.6333,1,Vertical,-4,282,0.861,0,1,years
0d33a47950135c84f166a83cb2,7/26/2019 13:21,7/28/2019 3:00,1,37.6333,37.6333,1,Horizontal,4,283,0.593,1,1,years
0d33a47950135c84f166a83cb2,7/26/2019 13:21,7/28/2019 3:00,1,37.6333,37.6333,1,Horizontal,6,284,0.548,1,1,years
0d33a47950135c84f166a83cb2,7/26/2019 13:21,7/28/2019 3:00,1,37.6333,37.6333,1,Horizontal,10,285,0.519,1,1,years
0d33a47950135c84f166a83cb2,7/26/2019 13:21,7/28/2019 3:00,1,37.6333,37.6333,1,Vertical,0,286,1.685,1,1,years
0d33a47950135c84f166a83cb2,7/26/2019 13:21,7/28/2019 3:00,1,37.6333,37.6333,1,Vertical,-8,287,0.648,0,1,years
0d33a47950135c84f166a83cb2,7/26/2019 13:21,7/28/2019 3:00,1,37.6333,37.6333,1,Vertical,8,288,0.636,1,1,years
0d33a47950135c84f166a83cb2,7/26/2019 13:21,7/28/2019 3:00,1,37.6333,37.6333,1,Horizontal,0,289,0.612,1,1,years
0d33a47950135c84f166a83cb2,7/26/2019 13:21,7/28/2019 3:00,1,37.6333,37.6333,1,Horizontal,2,290,0.945,1,1,years
0d33a47950135c84f166a83cb2,7/26/2019 13:21,7/28/2019 3:00,1,37.6333,37.6333,1,Horizontal,-2,291,0.676,0,1,years
0d33a47950135c84f166a83cb2,7/26/2019 13:21,7/28/2019 3:00,1,37.6333,37.6333,1,Vertical,4,292,0.724,1,1,years
0d33a47950135c84f166a83cb2,7/26/2019 13:21,7/28/2019 3:00,1,37.6333,37.6333,1,Vertical,-6,293,0.697,0,1,years
0d33a47950135c84f166a83cb2,7/26/2019 13:21,7/28/2019 3:00,1,37.6333,37.6333,1,Vertical,4,294,0.692,1,1,years
0d33a47950135c84f166a83cb2,7/26/2019 13:21,7/28/2019 3:00,1,37.6333,37.6333,1,Horizontal,-2,295,1.546,0,1,years
0d33a47950135c84f166a83cb2,7/26/2019 13:21,7/28/2019 3:00,1,37.6333,37.6333,1,Horizontal,-8,296,0.603,0,1,years
0d33a47950135c84f166a83cb2,7/26/2019 13:21,7/28/2019 3:00,1,37.6333,37.6333,1,Horizontal,2,297,1.522,1,1,years
0d33a47950135c84f166a83cb2,7/26/2019 13:21,7/28/2019 3:00,1,37.6333,37.6333,1,Vertical,0,298,2.408,1,1,years
0d33a47950135c84f166a83cb2,7/26/2019 13:21,7/28/2019 3:00,1,37.6333,37.6333,1,Vertical,4,299,0.8,1,1,years
0d33a47950135c84f166a83cb2,7/26/2019 13:21,7/28/2019 3:00,1,37.6333,37.6333,1,Vertical,6,300,0.772,1,1,years
0d33a47950135c84f166a83cb2,7/26/2019 13:21,7/28/2019 3:00,1,37.6333,37.6333,1,Horizontal,0,301,1.098,0,1,years
0d33a47950135c84f166a83cb2,7/26/2019 13:21,7/28/2019 3:00,1,37.6333,37.6333,1,Horizontal,6,302,0.612,1,1,years
0d33a47950135c84f166a83cb2,7/26/2019 13:21,7/28/2019 3:00,1,37.6333,37.6333,1,Horizontal,8,303,0.64,1,1,years
0d33a47950135c84f166a83cb2,7/26/2019 13:21,7/28/2019 3:00,1,37.6333,37.6333,1,Vertical,0,304,2.667,1,1,years
0d33a47950135c84f166a83cb2,7/26/2019 13:21,7/28/2019 3:00,1,37.6333,37.6333,1,Vertical,8,305,1.064,1,1,years
0d33a47950135c84f166a83cb2,7/26/2019 13:21,7/28/2019 3:00,1,37.6333,37.6333,1,Vertical,8,306,0.734,1,1,years
0d33a47950135c84f166a83cb2,7/26/2019 13:21,7/28/2019 3:00,1,37.6333,37.6333,1,Horizontal,0,307,5.854,0,1,years
0d33a47950135c84f166a83cb2,7/26/2019 13:21,7/28/2019 3:00,1,37.6333,37.6333,1,Horizontal,-10,308,0.64,0,1,years
0d33a47950135c84f166a83cb2,7/26/2019 13:21,7/28/2019 3:00,1,37.6333,37.6333,1,Horizontal,10,309,0.546,1,1,years
0d33a47950135c84f166a83cb2,7/26/2019 13:21,7/28/2019 3:00,1,37.6333,37.6333,1,Vertical,-6,310,0.59,0,1,years
0d33a47950135c84f166a83cb2,7/26/2019 13:21,7/28/2019 3:00,1,37.6333,37.6333,1,Vertical,-8,311,1.034,0,1,years
0d33a47950135c84f166a83cb2,7/26/2019 13:21,7/28/2019 3:00,1,37.6333,37.6333,1,Vertical,-2,312,1.509,0,1,years
0d33a47950135c84f166a83cb2,7/26/2019 13:21,7/28/2019 3:00,1,37.6333,37.6333,1,Horizontal,8,313,0.526,1,1,years
0d33a47950135c84f166a83cb2,7/26/2019 13:21,7/28/2019 3:00,1,37.6333,37.6333,1,Horizontal,-8,314,1.053,0,1,years
0d33a47950135c84f166a83cb2,7/26/2019 13:21,7/28/2019 3:00,1,37.6333,37.6333,1,Horizontal,-2,315,1.392,0,1,years
0d33a47950135c84f166a83cb2,7/26/2019 13:21,7/28/2019 3:00,1,37.6333,37.6333,1,Vertical,0,316,1.771,0,1,years
0d33a47950135c84f166a83cb2,7/26/2019 13:21,7/28/2019 3:00,1,37.6333,37.6333,1,Vertical,8,317,1.105,1,1,years
0d33a47950135c84f166a83cb2,7/26/2019 13:21,7/28/2019 3:00,1,37.6333,37.6333,1,Vertical,-8,318,0.826,0,1,years
0d33a47950135c84f166a83cb2,7/26/2019 13:21,7/28/2019 3:00,1,37.6333,37.6333,1,Horizontal,-6,319,0.587,0,1,years
0d33a47950135c84f166a83cb2,7/26/2019 13:21,7/28/2019 3:00,1,37.6333,37.6333,1,Horizontal,2,320,1.724,1,1,years
0d33a47950135c84f166a83cb2,7/26/2019 13:21,7/28/2019 3:00,1,37.6333,37.6333,1,Horizontal,6,321,0.836,1,1,years
0d33a47950135c84f166a83cb2,7/26/2019 13:21,7/28/2019 3:00,1,37.6333,37.6333,1,Vertical,-10,322,0.911,0,1,years
0d33a47950135c84f166a83cb2,7/26/2019 13:21,7/28/2019 3:00,1,37.6333,37.6333,1,Vertical,2,323,1.618,1,1,years
0d33a47950135c84f166a83cb2,7/26/2019 13:21,7/28/2019 3:00,1,37.6333,37.6333,1,Vertical,2,324,0.742,1,1,years
0d33a47950135c84f166a83cb2,7/26/2019 13:21,7/28/2019 3:00,1,37.6333,37.6333,1,Horizontal,0,325,3.712,0,1,years
0d33a47950135c84f166a83cb2,7/26/2019 13:21,7/28/2019 3:00,1,37.6333,37.6333,1,Horizontal,8,326,0.621,1,1,years
0d33a47950135c84f166a83cb2,7/26/2019 13:21,7/28/2019 3:00,1,37.6333,37.6333,1,Horizontal,-4,327,0.969,0,1,years
0d33a47950135c84f166a83cb2,7/26/2019 13:21,7/28/2019 3:00,1,37.6333,37.6333,1,Vertical,0,328,3.252,0,1,years
0d33a47950135c84f166a83cb2,7/26/2019 13:21,7/28/2019 3:00,1,37.6333,37.6333,1,Vertical,6,329,0.85,1,1,years
0d33a47950135c84f166a83cb2,7/26/2019 13:21,7/28/2019 3:00,1,37.6333,37.6333,1,Vertical,6,330,0.922,1,1,years
0d33a47950135c84f166a83cb2,7/26/2019 13:21,7/28/2019 3:00,1,37.6333,37.6333,1,Horizontal,0,331,1.84,1,1,years
0d33a47950135c84f166a83cb2,7/26/2019 13:21,7/28/2019 3:00,1,37.6333,37.6333,1,Horizontal,-6,332,0.817,0,1,years
0d33a47950135c84f166a83cb2,7/26/2019 13:21,7/28/2019 3:00,1,37.6333,37.6333,1,Horizontal,8,333,0.534,1,1,years
0d33a47950135c84f166a83cb2,7/26/2019 13:21,7/28/2019 3:00,1,37.6333,37.6333,1,Vertical,-6,334,0.752,0,1,years
0d33a47950135c84f166a83cb2,7/26/2019 13:21,7/28/2019 3:00,1,37.6333,37.6333,1,Vertical,-10,335,0.562,0,1,years
0d33a47950135c84f166a83cb2,7/26/2019 13:21,7/28/2019 3:00,1,37.6333,37.6333,1,Vertical,-8,336,0.744,0,1,years
0d33a47950135c84f166a83cb2,7/26/2019 13:21,7/28/2019 3:00,1,37.6333,37.6333,1,Horizontal,-4,337,0.687,0,1,years
0d33a47950135c84f166a83cb2,7/26/2019 13:21,7/28/2019 3:00,1,37.6333,37.6333,1,Horizontal,-10,338,0.624,0,1,years
0d33a47950135c84f166a83cb2,7/26/2019 13:21,7/28/2019 3:00,1,37.6333,37.6333,1,Horizontal,2,339,0.802,1,1,years
0d33a47950135c84f166a83cb2,7/26/2019 13:21,7/28/2019 3:00,1,37.6333,37.6333,1,Vertical,0,340,1.725,0,1,years
0d33a47950135c84f166a83cb2,7/26/2019 13:21,7/28/2019 3:00,1,37.6333,37.6333,1,Vertical,-4,341,2.97,0,1,years
0d33a47950135c84f166a83cb2,7/26/2019 13:21,7/28/2019 3:00,1,37.6333,37.6333,1,Vertical,-4,342,0.642,0,1,years
0d33a47950135c84f166a83cb2,7/26/2019 13:21,7/28/2019 3:00,1,37.6333,37.6333,1,Horizontal,4,343,1.55,1,1,years
0d33a47950135c84f166a83cb2,7/26/2019 13:21,7/28/2019 3:00,1,37.6333,37.6333,1,Horizontal,-6,344,0.61,0,1,years
0d33a47950135c84f166a83cb2,7/26/2019 13:21,7/28/2019 3:00,1,37.6333,37.6333,1,Horizontal,-10,345,0.544,0,1,years
0d33a47950135c84f166a83cb2,7/26/2019 13:21,7/28/2019 3:00,1,37.6333,37.6333,1,Vertical,-6,346,0.65,0,1,years
0d33a47950135c84f166a83cb2,7/26/2019 13:21,7/28/2019 3:00,1,37.6333,37.6333,1,Vertical,8,347,0.771,1,1,years
0d33a47950135c84f166a83cb2,7/26/2019 13:21,7/28/2019 3:00,1,37.6333,37.6333,1,Vertical,4,348,0.971,1,1,years
0d33a47950135c84f166a83cb2,7/26/2019 13:21,7/28/2019 3:00,1,37.6333,37.6333,1,Horizontal,2,349,1.721,1,1,years
0d33a47950135c84f166a83cb2,7/26/2019 13:21,7/28/2019 3:00,1,37.6333,37.6333,1,Horizontal,8,350,0.573,1,1,years
0d33a47950135c84f166a83cb2,7/26/2019 13:21,7/28/2019 3:00,1,37.6333,37.6333,1,Horizontal,-10,351,0.573,0,1,years
0d33a47950135c84f166a83cb2,7/26/2019 13:21,7/28/2019 3:00,1,37.6333,37.6333,1,Vertical,-8,352,0.653,0,1,years
0d33a47950135c84f166a83cb2,7/26/2019 13:21,7/28/2019 3:00,1,37.6333,37.6333,1,Vertical,-2,353,0.939,0,1,years
0d33a47950135c84f166a83cb2,7/26/2019 13:21,7/28/2019 3:00,1,37.6333,37.6333,1,Vertical,-6,354,0.919,0,1,years
0d33a47950135c84f166a83cb2,7/26/2019 13:21,7/28/2019 3:00,1,37.6333,37.6333,1,Horizontal,0,355,5.139,1,1,years
0d33a47950135c84f166a83cb2,7/26/2019 13:21,7/28/2019 3:00,1,37.6333,37.6333,1,Horizontal,10,356,0.552,1,1,years
0d33a47950135c84f166a83cb2,7/26/2019 13:21,7/28/2019 3:00,1,37.6333,37.6333,1,Horizontal,6,357,0.569,1,1,years
0d33a47950135c84f166a83cb2,7/26/2019 13:21,7/28/2019 3:00,1,37.6333,37.6333,1,Vertical,0,358,1.232,0,1,years
0d33a47950135c84f166a83cb2,7/26/2019 13:21,7/28/2019 3:00,1,37.6333,37.6333,1,Vertical,10,359,0.665,1,1,years
0d33a47950135c84f166a83cb2,7/26/2019 13:21,7/28/2019 3:00,1,37.6333,37.6333,1,Vertical,10,360,0.657,1,1,years
0d33a47950135c84f166a83cb2,7/26/2019 13:21,7/28/2019 3:00,1,37.6333,37.6333,1,Horizontal,6,361,0.714,1,1,years
0d33a47950135c84f166a83cb2,7/26/2019 13:21,7/28/2019 3:00,1,37.6333,37.6333,1,Horizontal,-2,362,1.459,0,1,years
0d33a47950135c84f166a83cb2,7/26/2019 13:21,7/28/2019 3:00,1,37.6333,37.6333,1,Horizontal,4,363,0.606,1,1,years
0d33a47950135c84f166a83cb2,7/26/2019 13:21,7/28/2019 3:00,1,37.6333,37.6333,1,Vertical,0,364,3.189,1,1,years
0d33a47950135c84f166a83cb2,7/26/2019 13:21,7/28/2019 3:00,1,37.6333,37.6333,1,Vertical,6,365,0.9,1,1,years
0d33a47950135c84f166a83cb2,7/26/2019 13:21,7/28/2019 3:00,1,37.6333,37.6333,1,Vertical,-6,366,0.781,0,1,years
0d33a47950135c84f166a83cb2,7/26/2019 13:21,7/28/2019 3:00,1,37.6333,37.6333,1,Horizontal,0,367,1.473,0,1,years
0d33a47950135c84f166a83cb2,7/26/2019 13:21,7/28/2019 3:00,1,37.6333,37.6333,1,Horizontal,6,368,0.794,1,1,years
0d33a47950135c84f166a83cb2,7/26/2019 13:21,7/28/2019 3:00,1,37.6333,37.6333,1,Horizontal,6,369,0.785,1,1,years
0d33a47950135c84f166a83cb2,7/26/2019 13:21,7/28/2019 3:00,1,37.6333,37.6333,1,Vertical,-2,370,1.717,1,1,years
0d33a47950135c84f166a83cb2,7/26/2019 13:21,7/28/2019 3:00,1,37.6333,37.6333,1,Vertical,6,371,0.906,1,1,years
0d33a47950135c84f166a83cb2,7/26/2019 13:21,7/28/2019 3:00,1,37.6333,37.6333,1,Vertical,4,372,1.205,1,1,years
0d33a47950135c84f166a83cb2,7/26/2019 13:21,7/28/2019 3:00,1,37.6333,37.6333,1,Horizontal,0,373,1.213,0,1,years
0d33a47950135c84f166a83cb2,7/26/2019 13:21,7/28/2019 3:00,1,37.6333,37.6333,1,Horizontal,-2,374,0.612,0,1,years
0d33a47950135c84f166a83cb2,7/26/2019 13:21,7/28/2019 3:00,1,37.6333,37.6333,1,Horizontal,-4,375,0.615,0,1,years
0d33a47950135c84f166a83cb2,7/26/2019 13:21,7/28/2019 3:00,1,37.6333,37.6333,1,Vertical,0,376,1.754,1,1,years
0d33a47950135c84f166a83cb2,7/26/2019 13:21,7/28/2019 3:00,1,37.6333,37.6333,1,Vertical,2,377,1.577,1,1,years
0d33a47950135c84f166a83cb2,7/26/2019 13:21,7/28/2019 3:00,1,37.6333,37.6333,1,Vertical,10,378,0.6,1,1,years
0d33a47950135c84f166a83cb2,7/26/2019 13:21,7/28/2019 3:00,1,37.6333,37.6333,1,Horizontal,-6,379,0.606,0,1,years
0d33a47950135c84f166a83cb2,7/26/2019 13:21,7/28/2019 3:00,1,37.6333,37.6333,1,Horizontal,8,380,0.623,1,1,years
0d33a47950135c84f166a83cb2,7/26/2019 13:21,7/28/2019 3:00,1,37.6333,37.6333,1,Horizontal,4,381,0.688,1,1,years
0d33a47950135c84f166a83cb2,7/26/2019 13:21,7/28/2019 3:00,1,37.6333,37.6333,1,Vertical,0,382,2.351,0,1,years
0d33a47950135c84f166a83cb2,7/26/2019 13:21,7/28/2019 3:00,1,37.6333,37.6333,1,Vertical,-4,383,0.72,0,1,years
0d33a47950135c84f166a83cb2,7/26/2019 13:21,7/28/2019 3:00,1,37.6333,37.6333,1,Vertical,2,384,0.86,1,1,years
0d33a47950135c84f166a83cb2,7/26/2019 13:21,7/28/2019 3:00,1,37.6333,37.6333,1,Horizontal,0,385,3.828,0,1,years
0d33a47950135c84f166a83cb2,7/26/2019 13:21,7/28/2019 3:00,1,37.6333,37.6333,1,Horizontal,2,386,1.974,1,1,years
0d33a47950135c84f166a83cb2,7/26/2019 13:21,7/28/2019 3:00,1,37.6333,37.6333,1,Horizontal,2,387,1.658,1,1,years
0d33a47950135c84f166a83cb2,7/26/2019 13:21,7/28/2019 3:00,1,37.6333,37.6333,1,Vertical,-8,388,0.791,0,1,years
0d33a47950135c84f166a83cb2,7/26/2019 13:21,7/28/2019 3:00,1,37.6333,37.6333,1,Vertical,-10,389,0.649,0,1,years
0d33a47950135c84f166a83cb2,7/26/2019 13:21,7/28/2019 3:00,1,37.6333,37.6333,1,Vertical,-2,390,0.848,0,1,years
0d33a47950135c84f166a83cb2,7/26/2019 13:21,7/28/2019 3:00,1,37.6333,37.6333,1,Horizontal,-4,391,0.96,0,1,years
0d33a47950135c84f166a83cb2,7/26/2019 13:21,7/28/2019 3:00,1,37.6333,37.6333,1,Horizontal,-10,392,0.582,0,1,years
0d33a47950135c84f166a83cb2,7/26/2019 13:21,7/28/2019 3:00,1,37.6333,37.6333,1,Horizontal,2,393,1.293,1,1,years
0d33a47950135c84f166a83cb2,7/26/2019 13:21,7/28/2019 3:00,1,37.6333,37.6333,1,Vertical,0,394,2.58,0,1,years
0d33a47950135c84f166a83cb2,7/26/2019 13:21,7/28/2019 3:00,1,37.6333,37.6333,1,Vertical,-8,395,0.554,0,1,years
0d33a47950135c84f166a83cb2,7/26/2019 13:21,7/28/2019 3:00,1,37.6333,37.6333,1,Vertical,2,396,0.707,1,1,years
0d33a47950135c84f166a83cb2,7/26/2019 13:21,7/28/2019 3:00,1,37.6333,37.6333,1,Horizontal,0,397,0.681,1,1,years
0d33a47950135c84f166a83cb2,7/26/2019 13:21,7/28/2019 3:00,1,37.6333,37.6333,1,Horizontal,4,398,0.621,1,1,years
0d33a47950135c84f166a83cb2,7/26/2019 13:21,7/28/2019 3:00,1,37.6333,37.6333,1,Horizontal,-2,399,1.087,0,1,years
0d33a47950135c84f166a83cb2,7/26/2019 13:21,7/28/2019 3:00,1,37.6333,37.6333,1,Vertical,8,400,0.818,1,1,years
0d33a47950135c84f166a83cb2,7/26/2019 13:21,7/28/2019 3:00,1,37.6333,37.6333,1,Vertical,-6,401,0.815,0,1,years
0d33a47950135c84f166a83cb2,7/26/2019 13:21,7/28/2019 3:00,1,37.6333,37.6333,1,Vertical,-4,402,0.95,0,1,years
0d33a47950135c84f166a83cb2,7/26/2019 13:21,7/28/2019 3:00,1,37.6333,37.6333,1,Horizontal,2,403,0.875,1,1,years
0d33a47950135c84f166a83cb2,7/26/2019 13:21,7/28/2019 3:00,1,37.6333,37.6333,1,Horizontal,8,404,0.545,1,1,years
0d33a47950135c84f166a83cb2,7/26/2019 13:21,7/28/2019 3:00,1,37.6333,37.6333,1,Horizontal,-8,405,0.574,0,1,years
0d33a47950135c84f166a83cb2,7/26/2019 13:21,7/28/2019 3:00,1,37.6333,37.6333,1,Vertical,-10,406,0.955,0,1,years
0d33a47950135c84f166a83cb2,7/26/2019 13:21,7/28/2019 3:00,1,37.6333,37.6333,1,Vertical,10,407,0.694,1,1,years
0d33a47950135c84f166a83cb2,7/26/2019 13:21,7/28/2019 3:00,1,37.6333,37.6333,1,Vertical,-4,408,1.238,0,1,years
0d33a47950135c84f166a83cb2,7/26/2019 13:21,7/28/2019 3:00,1,37.6333,37.6333,1,Horizontal,8,409,0.583,1,1,years
0d33a47950135c84f166a83cb2,7/26/2019 13:21,7/28/2019 3:00,1,37.6333,37.6333,1,Horizontal,8,410,0.528,1,1,years
0d33a47950135c84f166a83cb2,7/26/2019 13:21,7/28/2019 3:00,1,37.6333,37.6333,1,Horizontal,-8,411,0.579,0,1,years
0d33a47950135c84f166a83cb2,7/26/2019 13:21,7/28/2019 3:00,1,37.6333,37.6333,1,Vertical,0,412,1.559,1,1,years
0d33a47950135c84f166a83cb2,7/26/2019 13:21,7/28/2019 3:00,1,37.6333,37.6333,1,Vertical,8,413,0.573,1,1,years
0d33a47950135c84f166a83cb2,7/26/2019 13:21,7/28/2019 3:00,1,37.6333,37.6333,1,Vertical,-2,414,0.692,1,1,years
0d33a47950135c84f166a83cb2,7/26/2019 13:21,7/28/2019 3:00,1,37.6333,37.6333,1,Horizontal,0,415,2.128,0,1,years
0d33a47950135c84f166a83cb2,7/26/2019 13:21,7/28/2019 3:00,1,37.6333,37.6333,1,Horizontal,-8,416,0.559,0,1,years
0d33a47950135c84f166a83cb2,7/26/2019 13:21,7/28/2019 3:00,1,37.6333,37.6333,1,Horizontal,-4,417,0.642,0,1,years
0d33a47950135c84f166a83cb2,7/26/2019 13:21,7/28/2019 3:00,1,37.6333,37.6333,1,Vertical,8,418,0.878,1,1,years
0d33a47950135c84f166a83cb2,7/26/2019 13:21,7/28/2019 3:00,1,37.6333,37.6333,1,Vertical,-8,419,0.644,0,1,years
0d33a47950135c84f166a83cb2,7/26/2019 13:21,7/28/2019 3:00,1,37.6333,37.6333,1,Vertical,2,420,1.955,1,1,years
0d33a47950135c84f166a83cb2,7/26/2019 13:21,7/28/2019 3:00,1,37.6333,37.6333,1,Horizontal,10,421,0.67,1,1,years
0d33a47950135c84f166a83cb2,7/26/2019 13:21,7/28/2019 3:00,1,37.6333,37.6333,1,Horizontal,-6,422,0.543,0,1,years
0d33a47950135c84f166a83cb2,7/26/2019 13:21,7/28/2019 3:00,1,37.6333,37.6333,1,Horizontal,4,423,1.014,1,1,years
0d33a47950135c84f166a83cb2,7/26/2019 13:21,7/28/2019 3:00,1,37.6333,37.6333,1,Vertical,-6,424,1.054,0,1,years
0d33a47950135c84f166a83cb2,7/26/2019 13:21,7/28/2019 3:00,1,37.6333,37.6333,1,Vertical,-6,425,0.612,0,1,years
0d33a47950135c84f166a83cb2,7/26/2019 13:21,7/28/2019 3:00,1,37.6333,37.6333,1,Vertical,-10,426,0.534,0,1,years
0d33a47950135c84f166a83cb2,7/26/2019 13:21,7/28/2019 3:00,1,37.6333,37.6333,1,Horizontal,8,427,0.555,1,1,years
0d33a47950135c84f166a83cb2,7/26/2019 13:21,7/28/2019 3:00,1,37.6333,37.6333,1,Horizontal,-6,428,0.568,0,1,years
0d33a47950135c84f166a83cb2,7/26/2019 13:21,7/28/2019 3:00,1,37.6333,37.6333,1,Horizontal,-6,429,0.522,0,1,years
0d33a47950135c84f166a83cb2,7/26/2019 13:21,7/28/2019 3:00,1,37.6333,37.6333,1,Vertical,0,430,1.386,1,1,years
0d33a47950135c84f166a83cb2,7/26/2019 13:21,7/28/2019 3:00,1,37.6333,37.6333,1,Vertical,6,431,0.702,1,1,years
0d33a47950135c84f166a83cb2,7/26/2019 13:21,7/28/2019 3:00,1,37.6333,37.6333,1,Vertical,10,432,0.647,1,1,years
0d33a47950135c84f166a83cb2,7/26/2019 13:21,7/28/2019 3:00,1,37.6333,37.6333,1,Horizontal,0,433,4.331,0,1,years
0d33a47950135c84f166a83cb2,7/26/2019 13:21,7/28/2019 3:00,1,37.6333,37.6333,1,Horizontal,6,434,0.673,1,1,years
0d33a47950135c84f166a83cb2,7/26/2019 13:21,7/28/2019 3:00,1,37.6333,37.6333,1,Horizontal,2,435,1.32,1,1,years
0d33a47950135c84f166a83cb2,7/26/2019 13:21,7/28/2019 3:00,1,37.6333,37.6333,1,Vertical,-8,436,0.57,0,1,years
0d33a47950135c84f166a83cb2,7/26/2019 13:21,7/28/2019 3:00,1,37.6333,37.6333,1,Vertical,-4,437,1.096,0,1,years
0d33a47950135c84f166a83cb2,7/26/2019 13:21,7/28/2019 3:00,1,37.6333,37.6333,1,Vertical,8,438,0.972,1,1,years
0d33a47950135c84f166a83cb2,7/26/2019 13:21,7/28/2019 3:00,1,37.6333,37.6333,1,Horizontal,0,439,2.653,0,1,years
