ID,endDate,startDate,didSess3,hourDiff21,hourDiffPrev,session,task,dev,trialNum,rt,response,subj_idx,timeCondition
063ad4117feb47e7b3f458ae7d,7/26/2019 16:09,7/27/2019 18:04,1,25.9,25.9,1,Horizontal,10,1,1.212,1,0,day
063ad4117feb47e7b3f458ae7d,7/26/2019 16:09,7/27/2019 18:04,1,25.9,25.9,1,Horizontal,-6,2,0.987,0,0,day
063ad4117feb47e7b3f458ae7d,7/26/2019 16:09,7/27/2019 18:04,1,25.9,25.9,1,Horizontal,-10,3,2.362,0,0,day
063ad4117feb47e7b3f458ae7d,7/26/2019 16:09,7/27/2019 18:04,1,25.9,25.9,1,Vertical,-4,4,1.102,1,0,day
063ad4117feb47e7b3f458ae7d,7/26/2019 16:09,7/27/2019 18:04,1,25.9,25.9,1,Vertical,10,5,0.681,1,0,day
063ad4117feb47e7b3f458ae7d,7/26/2019 16:09,7/27/2019 18:04,1,25.9,25.9,1,Vertical,-10,6,1.342,0,0,day
063ad4117feb47e7b3f458ae7d,7/26/2019 16:09,7/27/2019 18:04,1,25.9,25.9,1,Horizontal,0,7,1.968,0,0,day
063ad4117feb47e7b3f458ae7d,7/26/2019 16:09,7/27/2019 18:04,1,25.9,25.9,1,Horizontal,-4,8,0.706,0,0,day
063ad4117feb47e7b3f458ae7d,7/26/2019 16:09,7/27/2019 18:04,1,25.9,25.9,1,Horizontal,-2,9,1.044,0,0,day
063ad4117feb47e7b3f458ae7d,7/26/2019 16:09,7/27/2019 18:04,1,25.9,25.9,1,Vertical,2,10,1.076,1,0,day
063ad4117feb47e7b3f458ae7d,7/26/2019 16:09,7/27/2019 18:04,1,25.9,25.9,1,Vertical,-4,11,2.338,0,0,day
063ad4117feb47e7b3f458ae7d,7/26/2019 16:09,7/27/2019 18:04,1,25.9,25.9,1,Vertical,6,12,0.848,1,0,day
063ad4117feb47e7b3f458ae7d,7/26/2019 16:09,7/27/2019 18:04,1,25.9,25.9,1,Horizontal,0,13,1.173,0,0,day
063ad4117feb47e7b3f458ae7d,7/26/2019 16:09,7/27/2019 18:04,1,25.9,25.9,1,Horizontal,-2,14,1.228,0,0,day
063ad4117feb47e7b3f458ae7d,7/26/2019 16:09,7/27/2019 18:04,1,25.9,25.9,1,Horizontal,10,15,0.55,1,0,day
063ad4117feb47e7b3f458ae7d,7/26/2019 16:09,7/27/2019 18:04,1,25.9,25.9,1,Vertical,0,16,1.034,1,0,day
063ad4117feb47e7b3f458ae7d,7/26/2019 16:09,7/27/2019 18:04,1,25.9,25.9,1,Vertical,2,17,1.051,1,0,day
063ad4117feb47e7b3f458ae7d,7/26/2019 16:09,7/27/2019 18:04,1,25.9,25.9,1,Vertical,-10,18,0.836,0,0,day
063ad4117feb47e7b3f458ae7d,7/26/2019 16:09,7/27/2019 18:04,1,25.9,25.9,1,Horizontal,4,19,0.833,1,0,day
063ad4117feb47e7b3f458ae7d,7/26/2019 16:09,7/27/2019 18:04,1,25.9,25.9,1,Horizontal,-8,20,0.599,0,0,day
063ad4117feb47e7b3f458ae7d,7/26/2019 16:09,7/27/2019 18:04,1,25.9,25.9,1,Horizontal,4,21,0.721,1,0,day
063ad4117feb47e7b3f458ae7d,7/26/2019 16:09,7/27/2019 18:04,1,25.9,25.9,1,Vertical,6,22,0.892,1,0,day
063ad4117feb47e7b3f458ae7d,7/26/2019 16:09,7/27/2019 18:04,1,25.9,25.9,1,Vertical,10,23,1.002,1,0,day
063ad4117feb47e7b3f458ae7d,7/26/2019 16:09,7/27/2019 18:04,1,25.9,25.9,1,Vertical,-2,24,0.97,1,0,day
063ad4117feb47e7b3f458ae7d,7/26/2019 16:09,7/27/2019 18:04,1,25.9,25.9,1,Horizontal,0,25,1.62,0,0,day
063ad4117feb47e7b3f458ae7d,7/26/2019 16:09,7/27/2019 18:04,1,25.9,25.9,1,Horizontal,4,26,0.741,1,0,day
063ad4117feb47e7b3f458ae7d,7/26/2019 16:09,7/27/2019 18:04,1,25.9,25.9,1,Horizontal,-4,27,0.839,0,0,day
063ad4117feb47e7b3f458ae7d,7/26/2019 16:09,7/27/2019 18:04,1,25.9,25.9,1,Vertical,0,28,1.209,1,0,day
063ad4117feb47e7b3f458ae7d,7/26/2019 16:09,7/27/2019 18:04,1,25.9,25.9,1,Vertical,-2,29,2.453,0,0,day
063ad4117feb47e7b3f458ae7d,7/26/2019 16:09,7/27/2019 18:04,1,25.9,25.9,1,Vertical,4,30,0.851,1,0,day
063ad4117feb47e7b3f458ae7d,7/26/2019 16:09,7/27/2019 18:04,1,25.9,25.9,1,Horizontal,-8,31,2.321,0,0,day
063ad4117feb47e7b3f458ae7d,7/26/2019 16:09,7/27/2019 18:04,1,25.9,25.9,1,Horizontal,-8,32,0.566,0,0,day
063ad4117feb47e7b3f458ae7d,7/26/2019 16:09,7/27/2019 18:04,1,25.9,25.9,1,Horizontal,6,33,0.472,1,0,day
063ad4117feb47e7b3f458ae7d,7/26/2019 16:09,7/27/2019 18:04,1,25.9,25.9,1,Vertical,-10,34,1.263,0,0,day
063ad4117feb47e7b3f458ae7d,7/26/2019 16:09,7/27/2019 18:04,1,25.9,25.9,1,Vertical,2,35,0.693,1,0,day
063ad4117feb47e7b3f458ae7d,7/26/2019 16:09,7/27/2019 18:04,1,25.9,25.9,1,Vertical,-2,36,1.578,1,0,day
063ad4117feb47e7b3f458ae7d,7/26/2019 16:09,7/27/2019 18:04,1,25.9,25.9,1,Horizontal,0,37,1.661,1,0,day
063ad4117feb47e7b3f458ae7d,7/26/2019 16:09,7/27/2019 18:04,1,25.9,25.9,1,Horizontal,-4,38,0.569,0,0,day
063ad4117feb47e7b3f458ae7d,7/26/2019 16:09,7/27/2019 18:04,1,25.9,25.9,1,Horizontal,-6,39,1.432,0,0,day
063ad4117feb47e7b3f458ae7d,7/26/2019 16:09,7/27/2019 18:04,1,25.9,25.9,1,Vertical,0,40,0.969,1,0,day
063ad4117feb47e7b3f458ae7d,7/26/2019 16:09,7/27/2019 18:04,1,25.9,25.9,1,Vertical,10,41,0.593,1,0,day
063ad4117feb47e7b3f458ae7d,7/26/2019 16:09,7/27/2019 18:04,1,25.9,25.9,1,Vertical,-4,42,1.64,0,0,day
063ad4117feb47e7b3f458ae7d,7/26/2019 16:09,7/27/2019 18:04,1,25.9,25.9,1,Horizontal,4,43,0.846,1,0,day
063ad4117feb47e7b3f458ae7d,7/26/2019 16:09,7/27/2019 18:04,1,25.9,25.9,1,Horizontal,6,44,0.549,1,0,day
063ad4117feb47e7b3f458ae7d,7/26/2019 16:09,7/27/2019 18:04,1,25.9,25.9,1,Horizontal,10,45,0.447,1,0,day
063ad4117feb47e7b3f458ae7d,7/26/2019 16:09,7/27/2019 18:04,1,25.9,25.9,1,Vertical,0,46,1.071,1,0,day
063ad4117feb47e7b3f458ae7d,7/26/2019 16:09,7/27/2019 18:04,1,25.9,25.9,1,Vertical,-8,47,0.768,0,0,day
063ad4117feb47e7b3f458ae7d,7/26/2019 16:09,7/27/2019 18:04,1,25.9,25.9,1,Vertical,8,48,0.84,1,0,day
063ad4117feb47e7b3f458ae7d,7/26/2019 16:09,7/27/2019 18:04,1,25.9,25.9,1,Horizontal,0,49,1.266,0,0,day
063ad4117feb47e7b3f458ae7d,7/26/2019 16:09,7/27/2019 18:04,1,25.9,25.9,1,Horizontal,2,50,0.875,1,0,day
063ad4117feb47e7b3f458ae7d,7/26/2019 16:09,7/27/2019 18:04,1,25.9,25.9,1,Horizontal,-2,51,0.878,0,0,day
063ad4117feb47e7b3f458ae7d,7/26/2019 16:09,7/27/2019 18:04,1,25.9,25.9,1,Vertical,4,52,0.808,1,0,day
063ad4117feb47e7b3f458ae7d,7/26/2019 16:09,7/27/2019 18:04,1,25.9,25.9,1,Vertical,-6,53,1.354,0,0,day
063ad4117feb47e7b3f458ae7d,7/26/2019 16:09,7/27/2019 18:04,1,25.9,25.9,1,Vertical,4,54,0.693,1,0,day
063ad4117feb47e7b3f458ae7d,7/26/2019 16:09,7/27/2019 18:04,1,25.9,25.9,1,Horizontal,-2,55,0.744,0,0,day
063ad4117feb47e7b3f458ae7d,7/26/2019 16:09,7/27/2019 18:04,1,25.9,25.9,1,Horizontal,-8,56,0.538,0,0,day
063ad4117feb47e7b3f458ae7d,7/26/2019 16:09,7/27/2019 18:04,1,25.9,25.9,1,Horizontal,2,57,0.693,1,0,day
063ad4117feb47e7b3f458ae7d,7/26/2019 16:09,7/27/2019 18:04,1,25.9,25.9,1,Vertical,0,58,0.947,1,0,day
063ad4117feb47e7b3f458ae7d,7/26/2019 16:09,7/27/2019 18:04,1,25.9,25.9,1,Vertical,4,59,0.908,1,0,day
063ad4117feb47e7b3f458ae7d,7/26/2019 16:09,7/27/2019 18:04,1,25.9,25.9,1,Vertical,6,60,0.609,1,0,day
063ad4117feb47e7b3f458ae7d,7/26/2019 16:09,7/27/2019 18:04,1,25.9,25.9,1,Horizontal,0,61,1.652,0,0,day
063ad4117feb47e7b3f458ae7d,7/26/2019 16:09,7/27/2019 18:04,1,25.9,25.9,1,Horizontal,6,62,1.092,1,0,day
063ad4117feb47e7b3f458ae7d,7/26/2019 16:09,7/27/2019 18:04,1,25.9,25.9,1,Horizontal,8,63,0.757,1,0,day
063ad4117feb47e7b3f458ae7d,7/26/2019 16:09,7/27/2019 18:04,1,25.9,25.9,1,Vertical,0,64,0.783,1,0,day
063ad4117feb47e7b3f458ae7d,7/26/2019 16:09,7/27/2019 18:04,1,25.9,25.9,1,Vertical,8,65,0.671,1,0,day
063ad4117feb47e7b3f458ae7d,7/26/2019 16:09,7/27/2019 18:04,1,25.9,25.9,1,Vertical,8,66,0.614,1,0,day
063ad4117feb47e7b3f458ae7d,7/26/2019 16:09,7/27/2019 18:04,1,25.9,25.9,1,Horizontal,0,67,0.782,0,0,day
063ad4117feb47e7b3f458ae7d,7/26/2019 16:09,7/27/2019 18:04,1,25.9,25.9,1,Horizontal,-10,68,0.561,0,0,day
063ad4117feb47e7b3f458ae7d,7/26/2019 16:09,7/27/2019 18:04,1,25.9,25.9,1,Horizontal,10,69,0.594,1,0,day
063ad4117feb47e7b3f458ae7d,7/26/2019 16:09,7/27/2019 18:04,1,25.9,25.9,1,Vertical,-6,70,0.474,1,0,day
063ad4117feb47e7b3f458ae7d,7/26/2019 16:09,7/27/2019 18:04,1,25.9,25.9,1,Vertical,-8,71,0.705,0,0,day
063ad4117feb47e7b3f458ae7d,7/26/2019 16:09,7/27/2019 18:04,1,25.9,25.9,1,Vertical,-2,72,0.743,1,0,day
063ad4117feb47e7b3f458ae7d,7/26/2019 16:09,7/27/2019 18:04,1,25.9,25.9,1,Horizontal,8,73,0.607,1,0,day
063ad4117feb47e7b3f458ae7d,7/26/2019 16:09,7/27/2019 18:04,1,25.9,25.9,1,Horizontal,-8,74,0.533,0,0,day
063ad4117feb47e7b3f458ae7d,7/26/2019 16:09,7/27/2019 18:04,1,25.9,25.9,1,Horizontal,-2,75,0.849,0,0,day
063ad4117feb47e7b3f458ae7d,7/26/2019 16:09,7/27/2019 18:04,1,25.9,25.9,1,Vertical,0,76,0.777,1,0,day
063ad4117feb47e7b3f458ae7d,7/26/2019 16:09,7/27/2019 18:04,1,25.9,25.9,1,Vertical,8,77,0.696,1,0,day
063ad4117feb47e7b3f458ae7d,7/26/2019 16:09,7/27/2019 18:04,1,25.9,25.9,1,Vertical,-8,78,0.752,0,0,day
063ad4117feb47e7b3f458ae7d,7/26/2019 16:09,7/27/2019 18:04,1,25.9,25.9,1,Horizontal,-6,79,0.583,0,0,day
063ad4117feb47e7b3f458ae7d,7/26/2019 16:09,7/27/2019 18:04,1,25.9,25.9,1,Horizontal,2,80,0.561,1,0,day
063ad4117feb47e7b3f458ae7d,7/26/2019 16:09,7/27/2019 18:04,1,25.9,25.9,1,Horizontal,6,81,0.588,1,0,day
063ad4117feb47e7b3f458ae7d,7/26/2019 16:09,7/27/2019 18:04,1,25.9,25.9,1,Vertical,-10,82,0.624,0,0,day
063ad4117feb47e7b3f458ae7d,7/26/2019 16:09,7/27/2019 18:04,1,25.9,25.9,1,Vertical,2,83,0.546,1,0,day
063ad4117feb47e7b3f458ae7d,7/26/2019 16:09,7/27/2019 18:04,1,25.9,25.9,1,Vertical,2,84,0.524,1,0,day
063ad4117feb47e7b3f458ae7d,7/26/2019 16:09,7/27/2019 18:04,1,25.9,25.9,1,Horizontal,0,85,0.625,0,0,day
063ad4117feb47e7b3f458ae7d,7/26/2019 16:09,7/27/2019 18:04,1,25.9,25.9,1,Horizontal,8,86,0.524,1,0,day
063ad4117feb47e7b3f458ae7d,7/26/2019 16:09,7/27/2019 18:04,1,25.9,25.9,1,Horizontal,-4,87,0.529,0,0,day
063ad4117feb47e7b3f458ae7d,7/26/2019 16:09,7/27/2019 18:04,1,25.9,25.9,1,Vertical,0,88,0.854,1,0,day
063ad4117feb47e7b3f458ae7d,7/26/2019 16:09,7/27/2019 18:04,1,25.9,25.9,1,Vertical,6,89,0.55,1,0,day
063ad4117feb47e7b3f458ae7d,7/26/2019 16:09,7/27/2019 18:04,1,25.9,25.9,1,Vertical,6,90,0.844,1,0,day
063ad4117feb47e7b3f458ae7d,7/26/2019 16:09,7/27/2019 18:04,1,25.9,25.9,1,Horizontal,0,91,0.945,0,0,day
063ad4117feb47e7b3f458ae7d,7/26/2019 16:09,7/27/2019 18:04,1,25.9,25.9,1,Horizontal,-6,92,0.58,0,0,day
063ad4117feb47e7b3f458ae7d,7/26/2019 16:09,7/27/2019 18:04,1,25.9,25.9,1,Horizontal,8,93,0.419,1,0,day
063ad4117feb47e7b3f458ae7d,7/26/2019 16:09,7/27/2019 18:04,1,25.9,25.9,1,Vertical,-6,94,0.632,0,0,day
063ad4117feb47e7b3f458ae7d,7/26/2019 16:09,7/27/2019 18:04,1,25.9,25.9,1,Vertical,-10,95,1.002,0,0,day
063ad4117feb47e7b3f458ae7d,7/26/2019 16:09,7/27/2019 18:04,1,25.9,25.9,1,Vertical,-8,96,0.632,0,0,day
063ad4117feb47e7b3f458ae7d,7/26/2019 16:09,7/27/2019 18:04,1,25.9,25.9,1,Horizontal,-4,97,0.552,0,0,day
063ad4117feb47e7b3f458ae7d,7/26/2019 16:09,7/27/2019 18:04,1,25.9,25.9,1,Horizontal,-10,98,0.486,0,0,day
063ad4117feb47e7b3f458ae7d,7/26/2019 16:09,7/27/2019 18:04,1,25.9,25.9,1,Horizontal,2,99,0.738,0,0,day
063ad4117feb47e7b3f458ae7d,7/26/2019 16:09,7/27/2019 18:04,1,25.9,25.9,1,Vertical,0,100,0.668,1,0,day
063ad4117feb47e7b3f458ae7d,7/26/2019 16:09,7/27/2019 18:04,1,25.9,25.9,1,Vertical,-4,101,0.545,0,0,day
063ad4117feb47e7b3f458ae7d,7/26/2019 16:09,7/27/2019 18:04,1,25.9,25.9,1,Vertical,-4,102,0.639,1,0,day
063ad4117feb47e7b3f458ae7d,7/26/2019 16:09,7/27/2019 18:04,1,25.9,25.9,1,Horizontal,4,103,0.547,1,0,day
063ad4117feb47e7b3f458ae7d,7/26/2019 16:09,7/27/2019 18:04,1,25.9,25.9,1,Horizontal,-6,104,0.603,0,0,day
063ad4117feb47e7b3f458ae7d,7/26/2019 16:09,7/27/2019 18:04,1,25.9,25.9,1,Horizontal,-10,105,0.472,0,0,day
063ad4117feb47e7b3f458ae7d,7/26/2019 16:09,7/27/2019 18:04,1,25.9,25.9,1,Vertical,-6,106,0.48,0,0,day
063ad4117feb47e7b3f458ae7d,7/26/2019 16:09,7/27/2019 18:04,1,25.9,25.9,1,Vertical,8,107,0.384,1,0,day
063ad4117feb47e7b3f458ae7d,7/26/2019 16:09,7/27/2019 18:04,1,25.9,25.9,1,Vertical,4,108,0.858,1,0,day
063ad4117feb47e7b3f458ae7d,7/26/2019 16:09,7/27/2019 18:04,1,25.9,25.9,1,Horizontal,2,109,0.88,1,0,day
063ad4117feb47e7b3f458ae7d,7/26/2019 16:09,7/27/2019 18:04,1,25.9,25.9,1,Horizontal,8,110,0.655,1,0,day
063ad4117feb47e7b3f458ae7d,7/26/2019 16:09,7/27/2019 18:04,1,25.9,25.9,1,Horizontal,-10,111,0.528,0,0,day
063ad4117feb47e7b3f458ae7d,7/26/2019 16:09,7/27/2019 18:04,1,25.9,25.9,1,Vertical,-8,112,0.558,0,0,day
063ad4117feb47e7b3f458ae7d,7/26/2019 16:09,7/27/2019 18:04,1,25.9,25.9,1,Vertical,-2,113,1.662,1,0,day
063ad4117feb47e7b3f458ae7d,7/26/2019 16:09,7/27/2019 18:04,1,25.9,25.9,1,Vertical,-6,114,0.748,0,0,day
063ad4117feb47e7b3f458ae7d,7/26/2019 16:09,7/27/2019 18:04,1,25.9,25.9,1,Horizontal,0,115,1.181,0,0,day
063ad4117feb47e7b3f458ae7d,7/26/2019 16:09,7/27/2019 18:04,1,25.9,25.9,1,Horizontal,10,116,0.539,1,0,day
063ad4117feb47e7b3f458ae7d,7/26/2019 16:09,7/27/2019 18:04,1,25.9,25.9,1,Horizontal,6,117,0.631,1,0,day
063ad4117feb47e7b3f458ae7d,7/26/2019 16:09,7/27/2019 18:04,1,25.9,25.9,1,Vertical,0,118,1.082,1,0,day
063ad4117feb47e7b3f458ae7d,7/26/2019 16:09,7/27/2019 18:04,1,25.9,25.9,1,Vertical,10,119,0.668,1,0,day
063ad4117feb47e7b3f458ae7d,7/26/2019 16:09,7/27/2019 18:04,1,25.9,25.9,1,Vertical,10,120,0.998,1,0,day
063ad4117feb47e7b3f458ae7d,7/26/2019 16:09,7/27/2019 18:04,1,25.9,25.9,1,Horizontal,6,121,2.516,1,0,day
063ad4117feb47e7b3f458ae7d,7/26/2019 16:09,7/27/2019 18:04,1,25.9,25.9,1,Horizontal,-2,122,0.967,0,0,day
063ad4117feb47e7b3f458ae7d,7/26/2019 16:09,7/27/2019 18:04,1,25.9,25.9,1,Horizontal,4,123,0.841,1,0,day
063ad4117feb47e7b3f458ae7d,7/26/2019 16:09,7/27/2019 18:04,1,25.9,25.9,1,Vertical,0,124,1.528,1,0,day
063ad4117feb47e7b3f458ae7d,7/26/2019 16:09,7/27/2019 18:04,1,25.9,25.9,1,Vertical,6,125,0.803,1,0,day
063ad4117feb47e7b3f458ae7d,7/26/2019 16:09,7/27/2019 18:04,1,25.9,25.9,1,Vertical,-6,126,0.643,0,0,day
063ad4117feb47e7b3f458ae7d,7/26/2019 16:09,7/27/2019 18:04,1,25.9,25.9,1,Horizontal,0,127,1.009,0,0,day
063ad4117feb47e7b3f458ae7d,7/26/2019 16:09,7/27/2019 18:04,1,25.9,25.9,1,Horizontal,6,128,0.529,1,0,day
063ad4117feb47e7b3f458ae7d,7/26/2019 16:09,7/27/2019 18:04,1,25.9,25.9,1,Horizontal,6,129,0.589,1,0,day
063ad4117feb47e7b3f458ae7d,7/26/2019 16:09,7/27/2019 18:04,1,25.9,25.9,1,Vertical,-2,130,0.923,1,0,day
063ad4117feb47e7b3f458ae7d,7/26/2019 16:09,7/27/2019 18:04,1,25.9,25.9,1,Vertical,6,131,0.802,1,0,day
063ad4117feb47e7b3f458ae7d,7/26/2019 16:09,7/27/2019 18:04,1,25.9,25.9,1,Vertical,4,132,0.841,1,0,day
063ad4117feb47e7b3f458ae7d,7/26/2019 16:09,7/27/2019 18:04,1,25.9,25.9,1,Horizontal,0,133,1.172,0,0,day
063ad4117feb47e7b3f458ae7d,7/26/2019 16:09,7/27/2019 18:04,1,25.9,25.9,1,Horizontal,-2,134,3.461,0,0,day
063ad4117feb47e7b3f458ae7d,7/26/2019 16:09,7/27/2019 18:04,1,25.9,25.9,1,Horizontal,-4,135,0.744,0,0,day
063ad4117feb47e7b3f458ae7d,7/26/2019 16:09,7/27/2019 18:04,1,25.9,25.9,1,Vertical,0,136,1.027,1,0,day
063ad4117feb47e7b3f458ae7d,7/26/2019 16:09,7/27/2019 18:04,1,25.9,25.9,1,Vertical,2,137,1.03,1,0,day
063ad4117feb47e7b3f458ae7d,7/26/2019 16:09,7/27/2019 18:04,1,25.9,25.9,1,Vertical,10,138,0.572,1,0,day
063ad4117feb47e7b3f458ae7d,7/26/2019 16:09,7/27/2019 18:04,1,25.9,25.9,1,Horizontal,-6,139,0.634,0,0,day
063ad4117feb47e7b3f458ae7d,7/26/2019 16:09,7/27/2019 18:04,1,25.9,25.9,1,Horizontal,8,140,0.581,1,0,day
063ad4117feb47e7b3f458ae7d,7/26/2019 16:09,7/27/2019 18:04,1,25.9,25.9,1,Horizontal,4,141,0.525,1,0,day
063ad4117feb47e7b3f458ae7d,7/26/2019 16:09,7/27/2019 18:04,1,25.9,25.9,1,Vertical,0,142,1.308,1,0,day
063ad4117feb47e7b3f458ae7d,7/26/2019 16:09,7/27/2019 18:04,1,25.9,25.9,1,Vertical,-4,143,1.023,0,0,day
063ad4117feb47e7b3f458ae7d,7/26/2019 16:09,7/27/2019 18:04,1,25.9,25.9,1,Vertical,2,144,0.69,1,0,day
063ad4117feb47e7b3f458ae7d,7/26/2019 16:09,7/27/2019 18:04,1,25.9,25.9,1,Horizontal,0,145,0.984,0,0,day
063ad4117feb47e7b3f458ae7d,7/26/2019 16:09,7/27/2019 18:04,1,25.9,25.9,1,Horizontal,2,146,0.904,0,0,day
063ad4117feb47e7b3f458ae7d,7/26/2019 16:09,7/27/2019 18:04,1,25.9,25.9,1,Horizontal,2,147,1.116,1,0,day
063ad4117feb47e7b3f458ae7d,7/26/2019 16:09,7/27/2019 18:04,1,25.9,25.9,1,Vertical,-8,148,0.9,0,0,day
063ad4117feb47e7b3f458ae7d,7/26/2019 16:09,7/27/2019 18:04,1,25.9,25.9,1,Vertical,-10,149,0.724,0,0,day
063ad4117feb47e7b3f458ae7d,7/26/2019 16:09,7/27/2019 18:04,1,25.9,25.9,1,Vertical,-2,150,0.874,1,0,day
063ad4117feb47e7b3f458ae7d,7/26/2019 16:09,7/27/2019 18:04,1,25.9,25.9,1,Horizontal,-4,151,1.228,0,0,day
063ad4117feb47e7b3f458ae7d,7/26/2019 16:09,7/27/2019 18:04,1,25.9,25.9,1,Horizontal,-10,152,0.907,0,0,day
063ad4117feb47e7b3f458ae7d,7/26/2019 16:09,7/27/2019 18:04,1,25.9,25.9,1,Horizontal,2,153,0.783,1,0,day
063ad4117feb47e7b3f458ae7d,7/26/2019 16:09,7/27/2019 18:04,1,25.9,25.9,1,Vertical,0,154,1.037,1,0,day
063ad4117feb47e7b3f458ae7d,7/26/2019 16:09,7/27/2019 18:04,1,25.9,25.9,1,Vertical,-8,155,0.776,0,0,day
063ad4117feb47e7b3f458ae7d,7/26/2019 16:09,7/27/2019 18:04,1,25.9,25.9,1,Vertical,2,156,0.965,1,0,day
063ad4117feb47e7b3f458ae7d,7/26/2019 16:09,7/27/2019 18:04,1,25.9,25.9,1,Horizontal,0,157,1.224,0,0,day
063ad4117feb47e7b3f458ae7d,7/26/2019 16:09,7/27/2019 18:04,1,25.9,25.9,1,Horizontal,4,158,1.156,1,0,day
063ad4117feb47e7b3f458ae7d,7/26/2019 16:09,7/27/2019 18:04,1,25.9,25.9,1,Horizontal,-2,159,0.867,0,0,day
063ad4117feb47e7b3f458ae7d,7/26/2019 16:09,7/27/2019 18:04,1,25.9,25.9,1,Vertical,8,160,0.806,1,0,day
063ad4117feb47e7b3f458ae7d,7/26/2019 16:09,7/27/2019 18:04,1,25.9,25.9,1,Vertical,-6,161,0.913,0,0,day
063ad4117feb47e7b3f458ae7d,7/26/2019 16:09,7/27/2019 18:04,1,25.9,25.9,1,Vertical,-4,162,0.91,1,0,day
063ad4117feb47e7b3f458ae7d,7/26/2019 16:09,7/27/2019 18:04,1,25.9,25.9,1,Horizontal,2,163,0.994,0,0,day
063ad4117feb47e7b3f458ae7d,7/26/2019 16:09,7/27/2019 18:04,1,25.9,25.9,1,Horizontal,8,164,0.556,1,0,day
063ad4117feb47e7b3f458ae7d,7/26/2019 16:09,7/27/2019 18:04,1,25.9,25.9,1,Horizontal,-8,165,0.541,0,0,day
063ad4117feb47e7b3f458ae7d,7/26/2019 16:09,7/27/2019 18:04,1,25.9,25.9,1,Vertical,-10,166,0.906,0,0,day
063ad4117feb47e7b3f458ae7d,7/26/2019 16:09,7/27/2019 18:04,1,25.9,25.9,1,Vertical,10,167,0.688,1,0,day
063ad4117feb47e7b3f458ae7d,7/26/2019 16:09,7/27/2019 18:04,1,25.9,25.9,1,Vertical,-4,168,0.607,0,0,day
063ad4117feb47e7b3f458ae7d,7/26/2019 16:09,7/27/2019 18:04,1,25.9,25.9,1,Horizontal,8,169,0.538,1,0,day
063ad4117feb47e7b3f458ae7d,7/26/2019 16:09,7/27/2019 18:04,1,25.9,25.9,1,Horizontal,8,170,0.509,1,0,day
063ad4117feb47e7b3f458ae7d,7/26/2019 16:09,7/27/2019 18:04,1,25.9,25.9,1,Horizontal,-8,171,0.774,0,0,day
063ad4117feb47e7b3f458ae7d,7/26/2019 16:09,7/27/2019 18:04,1,25.9,25.9,1,Vertical,0,172,0.921,1,0,day
063ad4117feb47e7b3f458ae7d,7/26/2019 16:09,7/27/2019 18:04,1,25.9,25.9,1,Vertical,8,173,0.662,1,0,day
063ad4117feb47e7b3f458ae7d,7/26/2019 16:09,7/27/2019 18:04,1,25.9,25.9,1,Vertical,-2,174,1.352,0,0,day
063ad4117feb47e7b3f458ae7d,7/26/2019 16:09,7/27/2019 18:04,1,25.9,25.9,1,Horizontal,0,175,1.618,0,0,day
063ad4117feb47e7b3f458ae7d,7/26/2019 16:09,7/27/2019 18:04,1,25.9,25.9,1,Horizontal,-8,176,0.713,0,0,day
063ad4117feb47e7b3f458ae7d,7/26/2019 16:09,7/27/2019 18:04,1,25.9,25.9,1,Horizontal,-4,177,0.639,0,0,day
063ad4117feb47e7b3f458ae7d,7/26/2019 16:09,7/27/2019 18:04,1,25.9,25.9,1,Vertical,8,178,0.729,1,0,day
063ad4117feb47e7b3f458ae7d,7/26/2019 16:09,7/27/2019 18:04,1,25.9,25.9,1,Vertical,-8,179,1.398,0,0,day
063ad4117feb47e7b3f458ae7d,7/26/2019 16:09,7/27/2019 18:04,1,25.9,25.9,1,Vertical,2,180,1.572,1,0,day
063ad4117feb47e7b3f458ae7d,7/26/2019 16:09,7/27/2019 18:04,1,25.9,25.9,1,Horizontal,10,181,0.836,1,0,day
063ad4117feb47e7b3f458ae7d,7/26/2019 16:09,7/27/2019 18:04,1,25.9,25.9,1,Horizontal,-6,182,0.68,0,0,day
063ad4117feb47e7b3f458ae7d,7/26/2019 16:09,7/27/2019 18:04,1,25.9,25.9,1,Horizontal,4,183,0.565,1,0,day
063ad4117feb47e7b3f458ae7d,7/26/2019 16:09,7/27/2019 18:04,1,25.9,25.9,1,Vertical,-6,184,1.345,1,0,day
063ad4117feb47e7b3f458ae7d,7/26/2019 16:09,7/27/2019 18:04,1,25.9,25.9,1,Vertical,-6,185,1.387,0,0,day
063ad4117feb47e7b3f458ae7d,7/26/2019 16:09,7/27/2019 18:04,1,25.9,25.9,1,Vertical,-10,186,0.928,0,0,day
063ad4117feb47e7b3f458ae7d,7/26/2019 16:09,7/27/2019 18:04,1,25.9,25.9,1,Horizontal,8,187,0.615,1,0,day
063ad4117feb47e7b3f458ae7d,7/26/2019 16:09,7/27/2019 18:04,1,25.9,25.9,1,Horizontal,-6,188,0.601,0,0,day
063ad4117feb47e7b3f458ae7d,7/26/2019 16:09,7/27/2019 18:04,1,25.9,25.9,1,Horizontal,-6,189,0.581,0,0,day
063ad4117feb47e7b3f458ae7d,7/26/2019 16:09,7/27/2019 18:04,1,25.9,25.9,1,Vertical,0,190,0.71,1,0,day
063ad4117feb47e7b3f458ae7d,7/26/2019 16:09,7/27/2019 18:04,1,25.9,25.9,1,Vertical,6,191,1.078,1,0,day
063ad4117feb47e7b3f458ae7d,7/26/2019 16:09,7/27/2019 18:04,1,25.9,25.9,1,Vertical,10,192,0.585,1,0,day
063ad4117feb47e7b3f458ae7d,7/26/2019 16:09,7/27/2019 18:04,1,25.9,25.9,1,Horizontal,0,193,1.002,0,0,day
063ad4117feb47e7b3f458ae7d,7/26/2019 16:09,7/27/2019 18:04,1,25.9,25.9,1,Horizontal,6,194,0.628,1,0,day
063ad4117feb47e7b3f458ae7d,7/26/2019 16:09,7/27/2019 18:04,1,25.9,25.9,1,Horizontal,2,195,0.924,1,0,day
063ad4117feb47e7b3f458ae7d,7/26/2019 16:09,7/27/2019 18:04,1,25.9,25.9,1,Vertical,-8,196,0.954,0,0,day
063ad4117feb47e7b3f458ae7d,7/26/2019 16:09,7/27/2019 18:04,1,25.9,25.9,1,Vertical,-4,197,1.529,0,0,day
063ad4117feb47e7b3f458ae7d,7/26/2019 16:09,7/27/2019 18:04,1,25.9,25.9,1,Vertical,8,198,0.662,1,0,day
063ad4117feb47e7b3f458ae7d,7/26/2019 16:09,7/27/2019 18:04,1,25.9,25.9,1,Horizontal,0,199,1.549,0,0,day
063ad4117feb47e7b3f458ae7d,7/26/2019 16:09,7/27/2019 18:04,1,25.9,25.9,1,Horizontal,-10,200,0.587,0,0,day
063ad4117feb47e7b3f458ae7d,7/26/2019 16:09,7/27/2019 18:04,1,25.9,25.9,1,Horizontal,-8,201,0.665,0,0,day
063ad4117feb47e7b3f458ae7d,7/26/2019 16:09,7/27/2019 18:04,1,25.9,25.9,1,Vertical,-8,202,0.872,0,0,day
063ad4117feb47e7b3f458ae7d,7/26/2019 16:09,7/27/2019 18:04,1,25.9,25.9,1,Vertical,4,203,0.98,1,0,day
063ad4117feb47e7b3f458ae7d,7/26/2019 16:09,7/27/2019 18:04,1,25.9,25.9,1,Vertical,4,204,0.958,1,0,day
063ad4117feb47e7b3f458ae7d,7/26/2019 16:09,7/27/2019 18:04,1,25.9,25.9,1,Horizontal,0,205,1.425,0,0,day
063ad4117feb47e7b3f458ae7d,7/26/2019 16:09,7/27/2019 18:04,1,25.9,25.9,1,Horizontal,10,206,0.647,1,0,day
063ad4117feb47e7b3f458ae7d,7/26/2019 16:09,7/27/2019 18:04,1,25.9,25.9,1,Horizontal,-2,207,0.971,0,0,day
063ad4117feb47e7b3f458ae7d,7/26/2019 16:09,7/27/2019 18:04,1,25.9,25.9,1,Vertical,0,208,0.731,1,0,day
063ad4117feb47e7b3f458ae7d,7/26/2019 16:09,7/27/2019 18:04,1,25.9,25.9,1,Vertical,4,209,1.294,1,0,day
063ad4117feb47e7b3f458ae7d,7/26/2019 16:09,7/27/2019 18:04,1,25.9,25.9,1,Vertical,8,210,0.851,1,0,day
063ad4117feb47e7b3f458ae7d,7/26/2019 16:09,7/27/2019 18:04,1,25.9,25.9,1,Horizontal,6,211,1.729,1,0,day
063ad4117feb47e7b3f458ae7d,7/26/2019 16:09,7/27/2019 18:04,1,25.9,25.9,1,Horizontal,-8,212,0.634,0,0,day
063ad4117feb47e7b3f458ae7d,7/26/2019 16:09,7/27/2019 18:04,1,25.9,25.9,1,Horizontal,-10,213,0.461,0,0,day
063ad4117feb47e7b3f458ae7d,7/26/2019 16:09,7/27/2019 18:04,1,25.9,25.9,1,Vertical,0,214,0.837,1,0,day
063ad4117feb47e7b3f458ae7d,7/26/2019 16:09,7/27/2019 18:04,1,25.9,25.9,1,Vertical,10,215,0.57,1,0,day
063ad4117feb47e7b3f458ae7d,7/26/2019 16:09,7/27/2019 18:04,1,25.9,25.9,1,Vertical,4,216,0.758,1,0,day
063ad4117feb47e7b3f458ae7d,7/26/2019 16:09,7/27/2019 18:04,1,25.9,25.9,1,Horizontal,0,217,0.985,0,0,day
063ad4117feb47e7b3f458ae7d,7/26/2019 16:09,7/27/2019 18:04,1,25.9,25.9,1,Horizontal,-4,218,0.628,0,0,day
063ad4117feb47e7b3f458ae7d,7/26/2019 16:09,7/27/2019 18:04,1,25.9,25.9,1,Horizontal,10,219,0.572,1,0,day
063ad4117feb47e7b3f458ae7d,7/26/2019 16:09,7/27/2019 18:04,1,25.9,25.9,1,Vertical,2,220,1.034,1,0,day
063ad4117feb47e7b3f458ae7d,7/26/2019 16:09,7/27/2019 18:04,1,25.9,25.9,1,Vertical,-4,221,1.396,1,0,day
063ad4117feb47e7b3f458ae7d,7/26/2019 16:09,7/27/2019 18:04,1,25.9,25.9,1,Vertical,-2,222,1.47,0,0,day
063ad4117feb47e7b3f458ae7d,7/26/2019 16:09,7/27/2019 18:04,1,25.9,25.9,1,Horizontal,0,223,0.927,0,0,day
063ad4117feb47e7b3f458ae7d,7/26/2019 16:09,7/27/2019 18:04,1,25.9,25.9,1,Horizontal,10,224,0.507,1,0,day
063ad4117feb47e7b3f458ae7d,7/26/2019 16:09,7/27/2019 18:04,1,25.9,25.9,1,Horizontal,-10,225,0.498,0,0,day
063ad4117feb47e7b3f458ae7d,7/26/2019 16:09,7/27/2019 18:04,1,25.9,25.9,1,Vertical,0,226,0.765,1,0,day
063ad4117feb47e7b3f458ae7d,7/26/2019 16:09,7/27/2019 18:04,1,25.9,25.9,1,Vertical,6,227,0.67,1,0,day
063ad4117feb47e7b3f458ae7d,7/26/2019 16:09,7/27/2019 18:04,1,25.9,25.9,1,Vertical,6,228,0.747,1,0,day
063ad4117feb47e7b3f458ae7d,7/26/2019 16:09,7/27/2019 18:04,1,25.9,25.9,1,Horizontal,-10,229,0.951,0,0,day
063ad4117feb47e7b3f458ae7d,7/26/2019 16:09,7/27/2019 18:04,1,25.9,25.9,1,Horizontal,10,230,0.558,1,0,day
063ad4117feb47e7b3f458ae7d,7/26/2019 16:09,7/27/2019 18:04,1,25.9,25.9,1,Horizontal,4,231,1.046,1,0,day
063ad4117feb47e7b3f458ae7d,7/26/2019 16:09,7/27/2019 18:04,1,25.9,25.9,1,Vertical,0,232,43.072,1,0,day
063ad4117feb47e7b3f458ae7d,7/26/2019 16:09,7/27/2019 18:04,1,25.9,25.9,1,Vertical,-6,233,0.752,0,0,day
063ad4117feb47e7b3f458ae7d,7/26/2019 16:09,7/27/2019 18:04,1,25.9,25.9,1,Vertical,-2,234,0.692,1,0,day
063ad4117feb47e7b3f458ae7d,7/26/2019 16:09,7/27/2019 18:04,1,25.9,25.9,1,Horizontal,-2,235,1.8,0,0,day
063ad4117feb47e7b3f458ae7d,7/26/2019 16:09,7/27/2019 18:04,1,25.9,25.9,1,Horizontal,-4,236,0.536,0,0,day
063ad4117feb47e7b3f458ae7d,7/26/2019 16:09,7/27/2019 18:04,1,25.9,25.9,1,Horizontal,-6,237,0.812,0,0,day
063ad4117feb47e7b3f458ae7d,7/26/2019 16:09,7/27/2019 18:04,1,25.9,25.9,1,Vertical,-10,238,1.476,0,0,day
063ad4117feb47e7b3f458ae7d,7/26/2019 16:09,7/27/2019 18:04,1,25.9,25.9,1,Vertical,10,239,0.711,1,0,day
063ad4117feb47e7b3f458ae7d,7/26/2019 16:09,7/27/2019 18:04,1,25.9,25.9,1,Vertical,-10,240,0.946,0,0,day
063ad4117feb47e7b3f458ae7d,7/26/2019 16:09,7/27/2019 18:04,1,25.9,25.9,1,Horizontal,10,241,0.538,1,0,day
063ad4117feb47e7b3f458ae7d,7/26/2019 16:09,7/27/2019 18:04,1,25.9,25.9,1,Horizontal,-6,242,0.558,0,0,day
063ad4117feb47e7b3f458ae7d,7/26/2019 16:09,7/27/2019 18:04,1,25.9,25.9,1,Horizontal,-10,243,1.647,0,0,day
063ad4117feb47e7b3f458ae7d,7/26/2019 16:09,7/27/2019 18:04,1,25.9,25.9,1,Vertical,-4,244,1.27,1,0,day
063ad4117feb47e7b3f458ae7d,7/26/2019 16:09,7/27/2019 18:04,1,25.9,25.9,1,Vertical,10,245,0.72,1,0,day
063ad4117feb47e7b3f458ae7d,7/26/2019 16:09,7/27/2019 18:04,1,25.9,25.9,1,Vertical,-10,246,0.605,0,0,day
063ad4117feb47e7b3f458ae7d,7/26/2019 16:09,7/27/2019 18:04,1,25.9,25.9,1,Horizontal,0,247,1.103,0,0,day
063ad4117feb47e7b3f458ae7d,7/26/2019 16:09,7/27/2019 18:04,1,25.9,25.9,1,Horizontal,-4,248,0.85,0,0,day
063ad4117feb47e7b3f458ae7d,7/26/2019 16:09,7/27/2019 18:04,1,25.9,25.9,1,Horizontal,-2,249,0.876,0,0,day
063ad4117feb47e7b3f458ae7d,7/26/2019 16:09,7/27/2019 18:04,1,25.9,25.9,1,Vertical,2,250,0.708,1,0,day
063ad4117feb47e7b3f458ae7d,7/26/2019 16:09,7/27/2019 18:04,1,25.9,25.9,1,Vertical,-4,251,0.92,1,0,day
063ad4117feb47e7b3f458ae7d,7/26/2019 16:09,7/27/2019 18:04,1,25.9,25.9,1,Vertical,6,252,0.621,1,0,day
063ad4117feb47e7b3f458ae7d,7/26/2019 16:09,7/27/2019 18:04,1,25.9,25.9,1,Horizontal,0,253,2.562,0,0,day
063ad4117feb47e7b3f458ae7d,7/26/2019 16:09,7/27/2019 18:04,1,25.9,25.9,1,Horizontal,-2,254,0.844,0,0,day
063ad4117feb47e7b3f458ae7d,7/26/2019 16:09,7/27/2019 18:04,1,25.9,25.9,1,Horizontal,10,255,0.474,1,0,day
063ad4117feb47e7b3f458ae7d,7/26/2019 16:09,7/27/2019 18:04,1,25.9,25.9,1,Vertical,0,256,0.754,1,0,day
063ad4117feb47e7b3f458ae7d,7/26/2019 16:09,7/27/2019 18:04,1,25.9,25.9,1,Vertical,2,257,0.704,1,0,day
063ad4117feb47e7b3f458ae7d,7/26/2019 16:09,7/27/2019 18:04,1,25.9,25.9,1,Vertical,-10,258,0.8,0,0,day
063ad4117feb47e7b3f458ae7d,7/26/2019 16:09,7/27/2019 18:04,1,25.9,25.9,1,Horizontal,4,259,0.492,1,0,day
063ad4117feb47e7b3f458ae7d,7/26/2019 16:09,7/27/2019 18:04,1,25.9,25.9,1,Horizontal,-8,260,0.512,0,0,day
063ad4117feb47e7b3f458ae7d,7/26/2019 16:09,7/27/2019 18:04,1,25.9,25.9,1,Horizontal,4,261,0.682,1,0,day
063ad4117feb47e7b3f458ae7d,7/26/2019 16:09,7/27/2019 18:04,1,25.9,25.9,1,Vertical,6,262,0.763,1,0,day
063ad4117feb47e7b3f458ae7d,7/26/2019 16:09,7/27/2019 18:04,1,25.9,25.9,1,Vertical,10,263,0.658,1,0,day
063ad4117feb47e7b3f458ae7d,7/26/2019 16:09,7/27/2019 18:04,1,25.9,25.9,1,Vertical,-2,264,1.262,1,0,day
063ad4117feb47e7b3f458ae7d,7/26/2019 16:09,7/27/2019 18:04,1,25.9,25.9,1,Horizontal,0,265,1.23,0,0,day
063ad4117feb47e7b3f458ae7d,7/26/2019 16:09,7/27/2019 18:04,1,25.9,25.9,1,Horizontal,4,266,1.509,1,0,day
063ad4117feb47e7b3f458ae7d,7/26/2019 16:09,7/27/2019 18:04,1,25.9,25.9,1,Horizontal,-4,267,0.551,0,0,day
063ad4117feb47e7b3f458ae7d,7/26/2019 16:09,7/27/2019 18:04,1,25.9,25.9,1,Vertical,0,268,0.711,1,0,day
063ad4117feb47e7b3f458ae7d,7/26/2019 16:09,7/27/2019 18:04,1,25.9,25.9,1,Vertical,-2,269,0.878,1,0,day
063ad4117feb47e7b3f458ae7d,7/26/2019 16:09,7/27/2019 18:04,1,25.9,25.9,1,Vertical,4,270,0.81,1,0,day
063ad4117feb47e7b3f458ae7d,7/26/2019 16:09,7/27/2019 18:04,1,25.9,25.9,1,Horizontal,-8,271,0.714,0,0,day
063ad4117feb47e7b3f458ae7d,7/26/2019 16:09,7/27/2019 18:04,1,25.9,25.9,1,Horizontal,-8,272,0.488,0,0,day
063ad4117feb47e7b3f458ae7d,7/26/2019 16:09,7/27/2019 18:04,1,25.9,25.9,1,Horizontal,6,273,0.449,1,0,day
063ad4117feb47e7b3f458ae7d,7/26/2019 16:09,7/27/2019 18:04,1,25.9,25.9,1,Vertical,-10,274,0.879,0,0,day
063ad4117feb47e7b3f458ae7d,7/26/2019 16:09,7/27/2019 18:04,1,25.9,25.9,1,Vertical,2,275,0.958,1,0,day
063ad4117feb47e7b3f458ae7d,7/26/2019 16:09,7/27/2019 18:04,1,25.9,25.9,1,Vertical,-2,276,0.563,1,0,day
063ad4117feb47e7b3f458ae7d,7/26/2019 16:09,7/27/2019 18:04,1,25.9,25.9,1,Horizontal,0,277,0.797,0,0,day
063ad4117feb47e7b3f458ae7d,7/26/2019 16:09,7/27/2019 18:04,1,25.9,25.9,1,Horizontal,-4,278,0.609,0,0,day
063ad4117feb47e7b3f458ae7d,7/26/2019 16:09,7/27/2019 18:04,1,25.9,25.9,1,Horizontal,-6,279,0.496,0,0,day
063ad4117feb47e7b3f458ae7d,7/26/2019 16:09,7/27/2019 18:04,1,25.9,25.9,1,Vertical,0,280,0.655,1,0,day
063ad4117feb47e7b3f458ae7d,7/26/2019 16:09,7/27/2019 18:04,1,25.9,25.9,1,Vertical,10,281,0.668,1,0,day
063ad4117feb47e7b3f458ae7d,7/26/2019 16:09,7/27/2019 18:04,1,25.9,25.9,1,Vertical,-4,282,1.315,0,0,day
063ad4117feb47e7b3f458ae7d,7/26/2019 16:09,7/27/2019 18:04,1,25.9,25.9,1,Horizontal,4,283,6.542,1,0,day
063ad4117feb47e7b3f458ae7d,7/26/2019 16:09,7/27/2019 18:04,1,25.9,25.9,1,Horizontal,6,284,0.635,1,0,day
063ad4117feb47e7b3f458ae7d,7/26/2019 16:09,7/27/2019 18:04,1,25.9,25.9,1,Horizontal,10,285,0.598,1,0,day
063ad4117feb47e7b3f458ae7d,7/26/2019 16:09,7/27/2019 18:04,1,25.9,25.9,1,Vertical,0,286,0.888,1,0,day
063ad4117feb47e7b3f458ae7d,7/26/2019 16:09,7/27/2019 18:04,1,25.9,25.9,1,Vertical,-8,287,3.977,0,0,day
063ad4117feb47e7b3f458ae7d,7/26/2019 16:09,7/27/2019 18:04,1,25.9,25.9,1,Vertical,8,288,0.77,1,0,day
063ad4117feb47e7b3f458ae7d,7/26/2019 16:09,7/27/2019 18:04,1,25.9,25.9,1,Horizontal,0,289,1.166,0,0,day
063ad4117feb47e7b3f458ae7d,7/26/2019 16:09,7/27/2019 18:04,1,25.9,25.9,1,Horizontal,2,290,0.731,1,0,day
063ad4117feb47e7b3f458ae7d,7/26/2019 16:09,7/27/2019 18:04,1,25.9,25.9,1,Horizontal,-2,291,1.326,0,0,day
063ad4117feb47e7b3f458ae7d,7/26/2019 16:09,7/27/2019 18:04,1,25.9,25.9,1,Vertical,4,292,0.778,1,0,day
063ad4117feb47e7b3f458ae7d,7/26/2019 16:09,7/27/2019 18:04,1,25.9,25.9,1,Vertical,-6,293,0.757,0,0,day
063ad4117feb47e7b3f458ae7d,7/26/2019 16:09,7/27/2019 18:04,1,25.9,25.9,1,Vertical,4,294,0.65,1,0,day
063ad4117feb47e7b3f458ae7d,7/26/2019 16:09,7/27/2019 18:04,1,25.9,25.9,1,Horizontal,-2,295,0.9,0,0,day
063ad4117feb47e7b3f458ae7d,7/26/2019 16:09,7/27/2019 18:04,1,25.9,25.9,1,Horizontal,-8,296,1.167,0,0,day
063ad4117feb47e7b3f458ae7d,7/26/2019 16:09,7/27/2019 18:04,1,25.9,25.9,1,Horizontal,2,297,0.847,1,0,day
063ad4117feb47e7b3f458ae7d,7/26/2019 16:09,7/27/2019 18:04,1,25.9,25.9,1,Vertical,0,298,1.99,1,0,day
063ad4117feb47e7b3f458ae7d,7/26/2019 16:09,7/27/2019 18:04,1,25.9,25.9,1,Vertical,4,299,0.678,1,0,day
063ad4117feb47e7b3f458ae7d,7/26/2019 16:09,7/27/2019 18:04,1,25.9,25.9,1,Vertical,6,300,0.714,1,0,day
063ad4117feb47e7b3f458ae7d,7/26/2019 16:09,7/27/2019 18:04,1,25.9,25.9,1,Horizontal,0,301,0.755,0,0,day
063ad4117feb47e7b3f458ae7d,7/26/2019 16:09,7/27/2019 18:04,1,25.9,25.9,1,Horizontal,6,302,0.8,1,0,day
063ad4117feb47e7b3f458ae7d,7/26/2019 16:09,7/27/2019 18:04,1,25.9,25.9,1,Horizontal,8,303,0.568,1,0,day
063ad4117feb47e7b3f458ae7d,7/26/2019 16:09,7/27/2019 18:04,1,25.9,25.9,1,Vertical,0,304,0.703,1,0,day
063ad4117feb47e7b3f458ae7d,7/26/2019 16:09,7/27/2019 18:04,1,25.9,25.9,1,Vertical,8,305,0.59,1,0,day
063ad4117feb47e7b3f458ae7d,7/26/2019 16:09,7/27/2019 18:04,1,25.9,25.9,1,Vertical,8,306,0.727,1,0,day
063ad4117feb47e7b3f458ae7d,7/26/2019 16:09,7/27/2019 18:04,1,25.9,25.9,1,Horizontal,0,307,0.947,0,0,day
063ad4117feb47e7b3f458ae7d,7/26/2019 16:09,7/27/2019 18:04,1,25.9,25.9,1,Horizontal,-10,308,0.53,0,0,day
063ad4117feb47e7b3f458ae7d,7/26/2019 16:09,7/27/2019 18:04,1,25.9,25.9,1,Horizontal,10,309,0.501,1,0,day
063ad4117feb47e7b3f458ae7d,7/26/2019 16:09,7/27/2019 18:04,1,25.9,25.9,1,Vertical,-6,310,0.801,0,0,day
063ad4117feb47e7b3f458ae7d,7/26/2019 16:09,7/27/2019 18:04,1,25.9,25.9,1,Vertical,-8,311,0.872,0,0,day
063ad4117feb47e7b3f458ae7d,7/26/2019 16:09,7/27/2019 18:04,1,25.9,25.9,1,Vertical,-2,312,0.73,1,0,day
063ad4117feb47e7b3f458ae7d,7/26/2019 16:09,7/27/2019 18:04,1,25.9,25.9,1,Horizontal,8,313,0.551,1,0,day
063ad4117feb47e7b3f458ae7d,7/26/2019 16:09,7/27/2019 18:04,1,25.9,25.9,1,Horizontal,-8,314,0.553,0,0,day
063ad4117feb47e7b3f458ae7d,7/26/2019 16:09,7/27/2019 18:04,1,25.9,25.9,1,Horizontal,-2,315,0.593,0,0,day
063ad4117feb47e7b3f458ae7d,7/26/2019 16:09,7/27/2019 18:04,1,25.9,25.9,1,Vertical,0,316,1.082,1,0,day
063ad4117feb47e7b3f458ae7d,7/26/2019 16:09,7/27/2019 18:04,1,25.9,25.9,1,Vertical,8,317,0.643,1,0,day
063ad4117feb47e7b3f458ae7d,7/26/2019 16:09,7/27/2019 18:04,1,25.9,25.9,1,Vertical,-8,318,0.621,0,0,day
063ad4117feb47e7b3f458ae7d,7/26/2019 16:09,7/27/2019 18:04,1,25.9,25.9,1,Horizontal,-6,319,0.515,0,0,day
063ad4117feb47e7b3f458ae7d,7/26/2019 16:09,7/27/2019 18:04,1,25.9,25.9,1,Horizontal,2,320,0.579,1,0,day
063ad4117feb47e7b3f458ae7d,7/26/2019 16:09,7/27/2019 18:04,1,25.9,25.9,1,Horizontal,6,321,0.564,1,0,day
063ad4117feb47e7b3f458ae7d,7/26/2019 16:09,7/27/2019 18:04,1,25.9,25.9,1,Vertical,-10,322,0.73,0,0,day
063ad4117feb47e7b3f458ae7d,7/26/2019 16:09,7/27/2019 18:04,1,25.9,25.9,1,Vertical,2,323,0.691,1,0,day
063ad4117feb47e7b3f458ae7d,7/26/2019 16:09,7/27/2019 18:04,1,25.9,25.9,1,Vertical,2,324,0.737,1,0,day
063ad4117feb47e7b3f458ae7d,7/26/2019 16:09,7/27/2019 18:04,1,25.9,25.9,1,Horizontal,0,325,1.308,0,0,day
063ad4117feb47e7b3f458ae7d,7/26/2019 16:09,7/27/2019 18:04,1,25.9,25.9,1,Horizontal,8,326,0.528,1,0,day
063ad4117feb47e7b3f458ae7d,7/26/2019 16:09,7/27/2019 18:04,1,25.9,25.9,1,Horizontal,-4,327,0.877,0,0,day
063ad4117feb47e7b3f458ae7d,7/26/2019 16:09,7/27/2019 18:04,1,25.9,25.9,1,Vertical,0,328,3.925,1,0,day
063ad4117feb47e7b3f458ae7d,7/26/2019 16:09,7/27/2019 18:04,1,25.9,25.9,1,Vertical,6,329,0.799,1,0,day
063ad4117feb47e7b3f458ae7d,7/26/2019 16:09,7/27/2019 18:04,1,25.9,25.9,1,Vertical,6,330,0.722,1,0,day
063ad4117feb47e7b3f458ae7d,7/26/2019 16:09,7/27/2019 18:04,1,25.9,25.9,1,Horizontal,0,331,0.873,0,0,day
063ad4117feb47e7b3f458ae7d,7/26/2019 16:09,7/27/2019 18:04,1,25.9,25.9,1,Horizontal,-6,332,0.702,0,0,day
063ad4117feb47e7b3f458ae7d,7/26/2019 16:09,7/27/2019 18:04,1,25.9,25.9,1,Horizontal,8,333,0.512,1,0,day
063ad4117feb47e7b3f458ae7d,7/26/2019 16:09,7/27/2019 18:04,1,25.9,25.9,1,Vertical,-6,334,0.875,0,0,day
063ad4117feb47e7b3f458ae7d,7/26/2019 16:09,7/27/2019 18:04,1,25.9,25.9,1,Vertical,-10,335,0.608,0,0,day
063ad4117feb47e7b3f458ae7d,7/26/2019 16:09,7/27/2019 18:04,1,25.9,25.9,1,Vertical,-8,336,0.702,0,0,day
063ad4117feb47e7b3f458ae7d,7/26/2019 16:09,7/27/2019 18:04,1,25.9,25.9,1,Horizontal,-4,337,0.539,0,0,day
063ad4117feb47e7b3f458ae7d,7/26/2019 16:09,7/27/2019 18:04,1,25.9,25.9,1,Horizontal,-10,338,0.503,0,0,day
063ad4117feb47e7b3f458ae7d,7/26/2019 16:09,7/27/2019 18:04,1,25.9,25.9,1,Horizontal,2,339,0.584,1,0,day
063ad4117feb47e7b3f458ae7d,7/26/2019 16:09,7/27/2019 18:04,1,25.9,25.9,1,Vertical,0,340,0.871,1,0,day
063ad4117feb47e7b3f458ae7d,7/26/2019 16:09,7/27/2019 18:04,1,25.9,25.9,1,Vertical,-4,341,0.567,0,0,day
063ad4117feb47e7b3f458ae7d,7/26/2019 16:09,7/27/2019 18:04,1,25.9,25.9,1,Vertical,-4,342,0.774,0,0,day
063ad4117feb47e7b3f458ae7d,7/26/2019 16:09,7/27/2019 18:04,1,25.9,25.9,1,Horizontal,4,343,0.578,1,0,day
063ad4117feb47e7b3f458ae7d,7/26/2019 16:09,7/27/2019 18:04,1,25.9,25.9,1,Horizontal,-6,344,0.559,0,0,day
063ad4117feb47e7b3f458ae7d,7/26/2019 16:09,7/27/2019 18:04,1,25.9,25.9,1,Horizontal,-10,345,0.478,0,0,day
063ad4117feb47e7b3f458ae7d,7/26/2019 16:09,7/27/2019 18:04,1,25.9,25.9,1,Vertical,-6,346,1.129,0,0,day
063ad4117feb47e7b3f458ae7d,7/26/2019 16:09,7/27/2019 18:04,1,25.9,25.9,1,Vertical,8,347,0.78,1,0,day
063ad4117feb47e7b3f458ae7d,7/26/2019 16:09,7/27/2019 18:04,1,25.9,25.9,1,Vertical,4,348,0.591,1,0,day
063ad4117feb47e7b3f458ae7d,7/26/2019 16:09,7/27/2019 18:04,1,25.9,25.9,1,Horizontal,2,349,0.94,1,0,day
063ad4117feb47e7b3f458ae7d,7/26/2019 16:09,7/27/2019 18:04,1,25.9,25.9,1,Horizontal,8,350,0.62,1,0,day
063ad4117feb47e7b3f458ae7d,7/26/2019 16:09,7/27/2019 18:04,1,25.9,25.9,1,Horizontal,-10,351,0.508,0,0,day
063ad4117feb47e7b3f458ae7d,7/26/2019 16:09,7/27/2019 18:04,1,25.9,25.9,1,Vertical,-8,352,0.853,0,0,day
063ad4117feb47e7b3f458ae7d,7/26/2019 16:09,7/27/2019 18:04,1,25.9,25.9,1,Vertical,-2,353,0.65,0,0,day
063ad4117feb47e7b3f458ae7d,7/26/2019 16:09,7/27/2019 18:04,1,25.9,25.9,1,Vertical,-6,354,1.519,0,0,day
063ad4117feb47e7b3f458ae7d,7/26/2019 16:09,7/27/2019 18:04,1,25.9,25.9,1,Horizontal,0,355,2.867,0,0,day
063ad4117feb47e7b3f458ae7d,7/26/2019 16:09,7/27/2019 18:04,1,25.9,25.9,1,Horizontal,10,356,1.592,1,0,day
063ad4117feb47e7b3f458ae7d,7/26/2019 16:09,7/27/2019 18:04,1,25.9,25.9,1,Horizontal,6,357,1.351,1,0,day
063ad4117feb47e7b3f458ae7d,7/26/2019 16:09,7/27/2019 18:04,1,25.9,25.9,1,Vertical,0,358,2.477,1,0,day
063ad4117feb47e7b3f458ae7d,7/26/2019 16:09,7/27/2019 18:04,1,25.9,25.9,1,Vertical,10,359,0.76,1,0,day
063ad4117feb47e7b3f458ae7d,7/26/2019 16:09,7/27/2019 18:04,1,25.9,25.9,1,Vertical,10,360,0.639,1,0,day
063ad4117feb47e7b3f458ae7d,7/26/2019 16:09,7/27/2019 18:04,1,25.9,25.9,1,Horizontal,6,361,1.175,1,0,day
063ad4117feb47e7b3f458ae7d,7/26/2019 16:09,7/27/2019 18:04,1,25.9,25.9,1,Horizontal,-2,362,0.77,0,0,day
063ad4117feb47e7b3f458ae7d,7/26/2019 16:09,7/27/2019 18:04,1,25.9,25.9,1,Horizontal,4,363,0.794,1,0,day
063ad4117feb47e7b3f458ae7d,7/26/2019 16:09,7/27/2019 18:04,1,25.9,25.9,1,Vertical,0,364,1.01,1,0,day
063ad4117feb47e7b3f458ae7d,7/26/2019 16:09,7/27/2019 18:04,1,25.9,25.9,1,Vertical,6,365,0.658,1,0,day
063ad4117feb47e7b3f458ae7d,7/26/2019 16:09,7/27/2019 18:04,1,25.9,25.9,1,Vertical,-6,366,1.12,0,0,day
063ad4117feb47e7b3f458ae7d,7/26/2019 16:09,7/27/2019 18:04,1,25.9,25.9,1,Horizontal,0,367,0.914,0,0,day
063ad4117feb47e7b3f458ae7d,7/26/2019 16:09,7/27/2019 18:04,1,25.9,25.9,1,Horizontal,6,368,0.535,1,0,day
063ad4117feb47e7b3f458ae7d,7/26/2019 16:09,7/27/2019 18:04,1,25.9,25.9,1,Horizontal,6,369,0.6,1,0,day
063ad4117feb47e7b3f458ae7d,7/26/2019 16:09,7/27/2019 18:04,1,25.9,25.9,1,Vertical,-2,370,1.021,1,0,day
063ad4117feb47e7b3f458ae7d,7/26/2019 16:09,7/27/2019 18:04,1,25.9,25.9,1,Vertical,6,371,0.615,1,0,day
063ad4117feb47e7b3f458ae7d,7/26/2019 16:09,7/27/2019 18:04,1,25.9,25.9,1,Vertical,4,372,0.875,1,0,day
063ad4117feb47e7b3f458ae7d,7/26/2019 16:09,7/27/2019 18:04,1,25.9,25.9,1,Horizontal,0,373,0.918,0,0,day
063ad4117feb47e7b3f458ae7d,7/26/2019 16:09,7/27/2019 18:04,1,25.9,25.9,1,Horizontal,-2,374,0.572,0,0,day
063ad4117feb47e7b3f458ae7d,7/26/2019 16:09,7/27/2019 18:04,1,25.9,25.9,1,Horizontal,-4,375,0.593,0,0,day
063ad4117feb47e7b3f458ae7d,7/26/2019 16:09,7/27/2019 18:04,1,25.9,25.9,1,Vertical,0,376,1.065,1,0,day
063ad4117feb47e7b3f458ae7d,7/26/2019 16:09,7/27/2019 18:04,1,25.9,25.9,1,Vertical,2,377,0.613,1,0,day
063ad4117feb47e7b3f458ae7d,7/26/2019 16:09,7/27/2019 18:04,1,25.9,25.9,1,Vertical,10,378,0.595,1,0,day
063ad4117feb47e7b3f458ae7d,7/26/2019 16:09,7/27/2019 18:04,1,25.9,25.9,1,Horizontal,-6,379,1.849,0,0,day
063ad4117feb47e7b3f458ae7d,7/26/2019 16:09,7/27/2019 18:04,1,25.9,25.9,1,Horizontal,8,380,0.993,1,0,day
063ad4117feb47e7b3f458ae7d,7/26/2019 16:09,7/27/2019 18:04,1,25.9,25.9,1,Horizontal,4,381,0.896,1,0,day
063ad4117feb47e7b3f458ae7d,7/26/2019 16:09,7/27/2019 18:04,1,25.9,25.9,1,Vertical,0,382,0.948,1,0,day
063ad4117feb47e7b3f458ae7d,7/26/2019 16:09,7/27/2019 18:04,1,25.9,25.9,1,Vertical,-4,383,0.598,0,0,day
063ad4117feb47e7b3f458ae7d,7/26/2019 16:09,7/27/2019 18:04,1,25.9,25.9,1,Vertical,2,384,0.681,1,0,day
063ad4117feb47e7b3f458ae7d,7/26/2019 16:09,7/27/2019 18:04,1,25.9,25.9,1,Horizontal,0,385,1.281,0,0,day
063ad4117feb47e7b3f458ae7d,7/26/2019 16:09,7/27/2019 18:04,1,25.9,25.9,1,Horizontal,2,386,1.038,1,0,day
063ad4117feb47e7b3f458ae7d,7/26/2019 16:09,7/27/2019 18:04,1,25.9,25.9,1,Horizontal,2,387,0.721,1,0,day
063ad4117feb47e7b3f458ae7d,7/26/2019 16:09,7/27/2019 18:04,1,25.9,25.9,1,Vertical,-8,388,0.962,1,0,day
063ad4117feb47e7b3f458ae7d,7/26/2019 16:09,7/27/2019 18:04,1,25.9,25.9,1,Vertical,-10,389,1.017,0,0,day
063ad4117feb47e7b3f458ae7d,7/26/2019 16:09,7/27/2019 18:04,1,25.9,25.9,1,Vertical,-2,390,0.971,1,0,day
063ad4117feb47e7b3f458ae7d,7/26/2019 16:09,7/27/2019 18:04,1,25.9,25.9,1,Horizontal,-4,391,0.537,0,0,day
063ad4117feb47e7b3f458ae7d,7/26/2019 16:09,7/27/2019 18:04,1,25.9,25.9,1,Horizontal,-10,392,0.502,0,0,day
063ad4117feb47e7b3f458ae7d,7/26/2019 16:09,7/27/2019 18:04,1,25.9,25.9,1,Horizontal,2,393,0.456,1,0,day
063ad4117feb47e7b3f458ae7d,7/26/2019 16:09,7/27/2019 18:04,1,25.9,25.9,1,Vertical,0,394,0.69,1,0,day
063ad4117feb47e7b3f458ae7d,7/26/2019 16:09,7/27/2019 18:04,1,25.9,25.9,1,Vertical,-8,395,0.859,0,0,day
063ad4117feb47e7b3f458ae7d,7/26/2019 16:09,7/27/2019 18:04,1,25.9,25.9,1,Vertical,2,396,0.628,1,0,day
063ad4117feb47e7b3f458ae7d,7/26/2019 16:09,7/27/2019 18:04,1,25.9,25.9,1,Horizontal,0,397,0.898,0,0,day
063ad4117feb47e7b3f458ae7d,7/26/2019 16:09,7/27/2019 18:04,1,25.9,25.9,1,Horizontal,4,398,0.622,1,0,day
063ad4117feb47e7b3f458ae7d,7/26/2019 16:09,7/27/2019 18:04,1,25.9,25.9,1,Horizontal,-2,399,0.537,0,0,day
063ad4117feb47e7b3f458ae7d,7/26/2019 16:09,7/27/2019 18:04,1,25.9,25.9,1,Vertical,8,400,0.745,1,0,day
063ad4117feb47e7b3f458ae7d,7/26/2019 16:09,7/27/2019 18:04,1,25.9,25.9,1,Vertical,-6,401,3.552,1,0,day
063ad4117feb47e7b3f458ae7d,7/26/2019 16:09,7/27/2019 18:04,1,25.9,25.9,1,Vertical,-4,402,2.42,0,0,day
063ad4117feb47e7b3f458ae7d,7/26/2019 16:09,7/27/2019 18:04,1,25.9,25.9,1,Horizontal,2,403,1.329,1,0,day
063ad4117feb47e7b3f458ae7d,7/26/2019 16:09,7/27/2019 18:04,1,25.9,25.9,1,Horizontal,8,404,0.693,1,0,day
063ad4117feb47e7b3f458ae7d,7/26/2019 16:09,7/27/2019 18:04,1,25.9,25.9,1,Horizontal,-8,405,0.539,0,0,day
063ad4117feb47e7b3f458ae7d,7/26/2019 16:09,7/27/2019 18:04,1,25.9,25.9,1,Vertical,-10,406,1.013,0,0,day
063ad4117feb47e7b3f458ae7d,7/26/2019 16:09,7/27/2019 18:04,1,25.9,25.9,1,Vertical,10,407,19.896,1,0,day
063ad4117feb47e7b3f458ae7d,7/26/2019 16:09,7/27/2019 18:04,1,25.9,25.9,1,Vertical,-4,408,2.912,1,0,day
063ad4117feb47e7b3f458ae7d,7/26/2019 16:09,7/27/2019 18:04,1,25.9,25.9,1,Horizontal,8,409,0.739,1,0,day
063ad4117feb47e7b3f458ae7d,7/26/2019 16:09,7/27/2019 18:04,1,25.9,25.9,1,Horizontal,8,410,0.895,1,0,day
063ad4117feb47e7b3f458ae7d,7/26/2019 16:09,7/27/2019 18:04,1,25.9,25.9,1,Horizontal,-8,411,0.889,0,0,day
063ad4117feb47e7b3f458ae7d,7/26/2019 16:09,7/27/2019 18:04,1,25.9,25.9,1,Vertical,0,412,0.974,1,0,day
063ad4117feb47e7b3f458ae7d,7/26/2019 16:09,7/27/2019 18:04,1,25.9,25.9,1,Vertical,8,413,0.586,1,0,day
063ad4117feb47e7b3f458ae7d,7/26/2019 16:09,7/27/2019 18:04,1,25.9,25.9,1,Vertical,-2,414,0.525,0,0,day
063ad4117feb47e7b3f458ae7d,7/26/2019 16:09,7/27/2019 18:04,1,25.9,25.9,1,Horizontal,0,415,0.842,0,0,day
063ad4117feb47e7b3f458ae7d,7/26/2019 16:09,7/27/2019 18:04,1,25.9,25.9,1,Horizontal,-8,416,0.528,0,0,day
063ad4117feb47e7b3f458ae7d,7/26/2019 16:09,7/27/2019 18:04,1,25.9,25.9,1,Horizontal,-4,417,0.576,0,0,day
063ad4117feb47e7b3f458ae7d,7/26/2019 16:09,7/27/2019 18:04,1,25.9,25.9,1,Vertical,8,418,0.596,1,0,day
063ad4117feb47e7b3f458ae7d,7/26/2019 16:09,7/27/2019 18:04,1,25.9,25.9,1,Vertical,-8,419,0.749,0,0,day
063ad4117feb47e7b3f458ae7d,7/26/2019 16:09,7/27/2019 18:04,1,25.9,25.9,1,Vertical,2,420,0.739,1,0,day
063ad4117feb47e7b3f458ae7d,7/26/2019 16:09,7/27/2019 18:04,1,25.9,25.9,1,Horizontal,10,421,0.545,1,0,day
063ad4117feb47e7b3f458ae7d,7/26/2019 16:09,7/27/2019 18:04,1,25.9,25.9,1,Horizontal,-6,422,1.049,0,0,day
063ad4117feb47e7b3f458ae7d,7/26/2019 16:09,7/27/2019 18:04,1,25.9,25.9,1,Horizontal,4,423,0.848,1,0,day
063ad4117feb47e7b3f458ae7d,7/26/2019 16:09,7/27/2019 18:04,1,25.9,25.9,1,Vertical,-6,424,1.518,0,0,day
063ad4117feb47e7b3f458ae7d,7/26/2019 16:09,7/27/2019 18:04,1,25.9,25.9,1,Vertical,-6,425,15.068,1,0,day
063ad4117feb47e7b3f458ae7d,7/26/2019 16:09,7/27/2019 18:04,1,25.9,25.9,1,Vertical,-10,426,1.027,0,0,day
063ad4117feb47e7b3f458ae7d,7/26/2019 16:09,7/27/2019 18:04,1,25.9,25.9,1,Horizontal,8,427,0.51,1,0,day
063ad4117feb47e7b3f458ae7d,7/26/2019 16:09,7/27/2019 18:04,1,25.9,25.9,1,Horizontal,-6,428,0.511,0,0,day
063ad4117feb47e7b3f458ae7d,7/26/2019 16:09,7/27/2019 18:04,1,25.9,25.9,1,Horizontal,-6,429,0.57,0,0,day
063ad4117feb47e7b3f458ae7d,7/26/2019 16:09,7/27/2019 18:04,1,25.9,25.9,1,Vertical,0,430,1.238,1,0,day
063ad4117feb47e7b3f458ae7d,7/26/2019 16:09,7/27/2019 18:04,1,25.9,25.9,1,Vertical,6,431,0.64,1,0,day
063ad4117feb47e7b3f458ae7d,7/26/2019 16:09,7/27/2019 18:04,1,25.9,25.9,1,Vertical,10,432,0.565,1,0,day
063ad4117feb47e7b3f458ae7d,7/26/2019 16:09,7/27/2019 18:04,1,25.9,25.9,1,Horizontal,0,433,0.909,0,0,day
063ad4117feb47e7b3f458ae7d,7/26/2019 16:09,7/27/2019 18:04,1,25.9,25.9,1,Horizontal,6,434,0.532,1,0,day
063ad4117feb47e7b3f458ae7d,7/26/2019 16:09,7/27/2019 18:04,1,25.9,25.9,1,Horizontal,2,435,0.913,0,0,day
063ad4117feb47e7b3f458ae7d,7/26/2019 16:09,7/27/2019 18:04,1,25.9,25.9,1,Vertical,-8,436,0.835,0,0,day
063ad4117feb47e7b3f458ae7d,7/26/2019 16:09,7/27/2019 18:04,1,25.9,25.9,1,Vertical,-4,437,0.572,1,0,day
063ad4117feb47e7b3f458ae7d,7/26/2019 16:09,7/27/2019 18:04,1,25.9,25.9,1,Vertical,8,438,0.559,1,0,day
063ad4117feb47e7b3f458ae7d,7/26/2019 16:09,7/27/2019 18:04,1,25.9,25.9,1,Horizontal,0,439,1.109,0,0,day
063ad4117feb47e7b3f458ae7d,7/26/2019 16:09,7/27/2019 18:04,1,25.9,25.9,1,Horizontal,-10,440,0.505,0,0,day
063ad4117feb47e7b3f458ae7d,7/26/2019 16:09,7/27/2019 18:04,1,25.9,25.9,1,Horizontal,-8,441,1.129,0,0,day
063ad4117feb47e7b3f458ae7d,7/26/2019 16:09,7/27/2019 18:04,1,25.9,25.9,1,Vertical,-8,442,0.864,0,0,day
063ad4117feb47e7b3f458ae7d,7/26/2019 16:09,7/27/2019 18:04,1,25.9,25.9,1,Vertical,4,443,0.585,1,0,day
063ad4117feb47e7b3f458ae7d,7/26/2019 16:09,7/27/2019 18:04,1,25.9,25.9,1,Vertical,4,444,0.66,1,0,day
063ad4117feb47e7b3f458ae7d,7/26/2019 16:09,7/27/2019 18:04,1,25.9,25.9,1,Horizontal,0,445,0.586,0,0,day
063ad4117feb47e7b3f458ae7d,7/26/2019 16:09,7/27/2019 18:04,1,25.9,25.9,1,Horizontal,10,446,0.802,1,0,day
063ad4117feb47e7b3f458ae7d,7/26/2019 16:09,7/27/2019 18:04,1,25.9,25.9,1,Horizontal,-2,447,0.677,0,0,day
063ad4117feb47e7b3f458ae7d,7/26/2019 16:09,7/27/2019 18:04,1,25.9,25.9,1,Vertical,0,448,0.763,1,0,day
063ad4117feb47e7b3f458ae7d,7/26/2019 16:09,7/27/2019 18:04,1,25.9,25.9,1,Vertical,4,449,0.87,1,0,day
063ad4117feb47e7b3f458ae7d,7/26/2019 16:09,7/27/2019 18:04,1,25.9,25.9,1,Vertical,8,450,0.548,1,0,day
063ad4117feb47e7b3f458ae7d,7/26/2019 16:09,7/27/2019 18:04,1,25.9,25.9,1,Horizontal,6,451,0.651,1,0,day
063ad4117feb47e7b3f458ae7d,7/26/2019 16:09,7/27/2019 18:04,1,25.9,25.9,1,Horizontal,-8,452,0.484,0,0,day
063ad4117feb47e7b3f458ae7d,7/26/2019 16:09,7/27/2019 18:04,1,25.9,25.9,1,Horizontal,-10,453,0.468,0,0,day
063ad4117feb47e7b3f458ae7d,7/26/2019 16:09,7/27/2019 18:04,1,25.9,25.9,1,Vertical,0,454,0.649,1,0,day
063ad4117feb47e7b3f458ae7d,7/26/2019 16:09,7/27/2019 18:04,1,25.9,25.9,1,Vertical,10,455,0.618,1,0,day
063ad4117feb47e7b3f458ae7d,7/26/2019 16:09,7/27/2019 18:04,1,25.9,25.9,1,Vertical,4,456,0.687,1,0,day
063ad4117feb47e7b3f458ae7d,7/26/2019 16:09,7/27/2019 18:04,1,25.9,25.9,1,Horizontal,0,457,0.923,0,0,day
063ad4117feb47e7b3f458ae7d,7/26/2019 16:09,7/27/2019 18:04,1,25.9,25.9,1,Horizontal,-4,458,0.503,0,0,day
063ad4117feb47e7b3f458ae7d,7/26/2019 16:09,7/27/2019 18:04,1,25.9,25.9,1,Horizontal,10,459,0.543,1,0,day
063ad4117feb47e7b3f458ae7d,7/26/2019 16:09,7/27/2019 18:04,1,25.9,25.9,1,Vertical,2,460,0.668,1,0,day
063ad4117feb47e7b3f458ae7d,7/26/2019 16:09,7/27/2019 18:04,1,25.9,25.9,1,Vertical,-4,461,0.706,1,0,day
063ad4117feb47e7b3f458ae7d,7/26/2019 16:09,7/27/2019 18:04,1,25.9,25.9,1,Vertical,-2,462,1.292,1,0,day
063ad4117feb47e7b3f458ae7d,7/26/2019 16:09,7/27/2019 18:04,1,25.9,25.9,1,Horizontal,0,463,0.869,0,0,day
063ad4117feb47e7b3f458ae7d,7/26/2019 16:09,7/27/2019 18:04,1,25.9,25.9,1,Horizontal,10,464,0.516,1,0,day
063ad4117feb47e7b3f458ae7d,7/26/2019 16:09,7/27/2019 18:04,1,25.9,25.9,1,Horizontal,-10,465,0.473,0,0,day
063ad4117feb47e7b3f458ae7d,7/26/2019 16:09,7/27/2019 18:04,1,25.9,25.9,1,Vertical,0,466,0.711,1,0,day
063ad4117feb47e7b3f458ae7d,7/26/2019 16:09,7/27/2019 18:04,1,25.9,25.9,1,Vertical,6,467,0.615,1,0,day
063ad4117feb47e7b3f458ae7d,7/26/2019 16:09,7/27/2019 18:04,1,25.9,25.9,1,Vertical,6,468,0.658,1,0,day
063ad4117feb47e7b3f458ae7d,7/26/2019 16:09,7/27/2019 18:04,1,25.9,25.9,1,Horizontal,-10,469,0.52,0,0,day
063ad4117feb47e7b3f458ae7d,7/26/2019 16:09,7/27/2019 18:04,1,25.9,25.9,1,Horizontal,10,470,0.538,1,0,day
063ad4117feb47e7b3f458ae7d,7/26/2019 16:09,7/27/2019 18:04,1,25.9,25.9,1,Horizontal,4,471,0.651,1,0,day
063ad4117feb47e7b3f458ae7d,7/26/2019 16:09,7/27/2019 18:04,1,25.9,25.9,1,Vertical,0,472,0.885,1,0,day
063ad4117feb47e7b3f458ae7d,7/26/2019 16:09,7/27/2019 18:04,1,25.9,25.9,1,Vertical,-6,473,0.86,0,0,day
063ad4117feb47e7b3f458ae7d,7/26/2019 16:09,7/27/2019 18:04,1,25.9,25.9,1,Vertical,-2,474,1.415,1,0,day
063ad4117feb47e7b3f458ae7d,7/26/2019 16:09,7/27/2019 18:04,1,25.9,25.9,1,Horizontal,-2,475,0.938,0,0,day
063ad4117feb47e7b3f458ae7d,7/26/2019 16:09,7/27/2019 18:04,1,25.9,25.9,1,Horizontal,-4,476,0.65,0,0,day
063ad4117feb47e7b3f458ae7d,7/26/2019 16:09,7/27/2019 18:04,1,25.9,25.9,1,Horizontal,-6,477,0.539,0,0,day
063ad4117feb47e7b3f458ae7d,7/26/2019 16:09,7/27/2019 18:04,1,25.9,25.9,1,Vertical,-10,478,1.005,0,0,day
063ad4117feb47e7b3f458ae7d,7/26/2019 16:09,7/27/2019 18:04,1,25.9,25.9,1,Vertical,10,479,1.631,1,0,day
063ad4117feb47e7b3f458ae7d,7/26/2019 16:09,7/27/2019 18:04,1,25.9,25.9,1,Vertical,-10,480,1.013,0,0,day
080f2a025645607050ba3ab667,7/26/2019 16:33,7/27/2019 19:16,0,26.7,26.7,1,Horizontal,10,1,0.922,1,1,day
080f2a025645607050ba3ab667,7/26/2019 16:33,7/27/2019 19:16,0,26.7,26.7,1,Horizontal,-6,2,0.705,0,1,day
080f2a025645607050ba3ab667,7/26/2019 16:33,7/27/2019 19:16,0,26.7,26.7,1,Horizontal,-10,3,0.974,0,1,day
080f2a025645607050ba3ab667,7/26/2019 16:33,7/27/2019 19:16,0,26.7,26.7,1,Vertical,-4,4,3.497,0,1,day
080f2a025645607050ba3ab667,7/26/2019 16:33,7/27/2019 19:16,0,26.7,26.7,1,Vertical,10,5,0.837,1,1,day
080f2a025645607050ba3ab667,7/26/2019 16:33,7/27/2019 19:16,0,26.7,26.7,1,Vertical,-10,6,1.206,0,1,day
080f2a025645607050ba3ab667,7/26/2019 16:33,7/27/2019 19:16,0,26.7,26.7,1,Horizontal,0,7,10.101,1,1,day
080f2a025645607050ba3ab667,7/26/2019 16:33,7/27/2019 19:16,0,26.7,26.7,1,Horizontal,-4,8,1.314,0,1,day
080f2a025645607050ba3ab667,7/26/2019 16:33,7/27/2019 19:16,0,26.7,26.7,1,Horizontal,-2,9,1.446,0,1,day
080f2a025645607050ba3ab667,7/26/2019 16:33,7/27/2019 19:16,0,26.7,26.7,1,Vertical,2,10,2.165,1,1,day
080f2a025645607050ba3ab667,7/26/2019 16:33,7/27/2019 19:16,0,26.7,26.7,1,Vertical,-4,11,1.109,0,1,day
080f2a025645607050ba3ab667,7/26/2019 16:33,7/27/2019 19:16,0,26.7,26.7,1,Vertical,6,12,1.112,1,1,day
080f2a025645607050ba3ab667,7/26/2019 16:33,7/27/2019 19:16,0,26.7,26.7,1,Horizontal,0,13,2.125,0,1,day
080f2a025645607050ba3ab667,7/26/2019 16:33,7/27/2019 19:16,0,26.7,26.7,1,Horizontal,-2,14,1.139,0,1,day
080f2a025645607050ba3ab667,7/26/2019 16:33,7/27/2019 19:16,0,26.7,26.7,1,Horizontal,10,15,0.667,1,1,day
080f2a025645607050ba3ab667,7/26/2019 16:33,7/27/2019 19:16,0,26.7,26.7,1,Vertical,0,16,4.658,1,1,day
080f2a025645607050ba3ab667,7/26/2019 16:33,7/27/2019 19:16,0,26.7,26.7,1,Vertical,2,17,1.376,1,1,day
080f2a025645607050ba3ab667,7/26/2019 16:33,7/27/2019 19:16,0,26.7,26.7,1,Vertical,-10,18,0.89,0,1,day
080f2a025645607050ba3ab667,7/26/2019 16:33,7/27/2019 19:16,0,26.7,26.7,1,Horizontal,4,19,1.33,1,1,day
080f2a025645607050ba3ab667,7/26/2019 16:33,7/27/2019 19:16,0,26.7,26.7,1,Horizontal,-8,20,0.687,0,1,day
080f2a025645607050ba3ab667,7/26/2019 16:33,7/27/2019 19:16,0,26.7,26.7,1,Horizontal,4,21,1.381,1,1,day
080f2a025645607050ba3ab667,7/26/2019 16:33,7/27/2019 19:16,0,26.7,26.7,1,Vertical,6,22,1.683,1,1,day
080f2a025645607050ba3ab667,7/26/2019 16:33,7/27/2019 19:16,0,26.7,26.7,1,Vertical,10,23,1.256,1,1,day
080f2a025645607050ba3ab667,7/26/2019 16:33,7/27/2019 19:16,0,26.7,26.7,1,Vertical,-2,24,2.72,1,1,day
080f2a025645607050ba3ab667,7/26/2019 16:33,7/27/2019 19:16,0,26.7,26.7,1,Horizontal,0,25,3.492,0,1,day
080f2a025645607050ba3ab667,7/26/2019 16:33,7/27/2019 19:16,0,26.7,26.7,1,Horizontal,4,26,1.371,1,1,day
080f2a025645607050ba3ab667,7/26/2019 16:33,7/27/2019 19:16,0,26.7,26.7,1,Horizontal,-4,27,0.685,0,1,day
080f2a025645607050ba3ab667,7/26/2019 16:33,7/27/2019 19:16,0,26.7,26.7,1,Vertical,0,28,2.363,1,1,day
080f2a025645607050ba3ab667,7/26/2019 16:33,7/27/2019 19:16,0,26.7,26.7,1,Vertical,-2,29,8.227,0,1,day
080f2a025645607050ba3ab667,7/26/2019 16:33,7/27/2019 19:16,0,26.7,26.7,1,Vertical,4,30,7.672,1,1,day
080f2a025645607050ba3ab667,7/26/2019 16:33,7/27/2019 19:16,0,26.7,26.7,1,Horizontal,-8,31,1.889,0,1,day
080f2a025645607050ba3ab667,7/26/2019 16:33,7/27/2019 19:16,0,26.7,26.7,1,Horizontal,-8,32,2.642,0,1,day
080f2a025645607050ba3ab667,7/26/2019 16:33,7/27/2019 19:16,0,26.7,26.7,1,Horizontal,6,33,0.864,1,1,day
080f2a025645607050ba3ab667,7/26/2019 16:33,7/27/2019 19:16,0,26.7,26.7,1,Vertical,-10,34,4.397,0,1,day
080f2a025645607050ba3ab667,7/26/2019 16:33,7/27/2019 19:16,0,26.7,26.7,1,Vertical,2,35,4.804,0,1,day
080f2a025645607050ba3ab667,7/26/2019 16:33,7/27/2019 19:16,0,26.7,26.7,1,Vertical,-2,36,6.447,0,1,day
080f2a025645607050ba3ab667,7/26/2019 16:33,7/27/2019 19:16,0,26.7,26.7,1,Horizontal,0,37,3.495,0,1,day
080f2a025645607050ba3ab667,7/26/2019 16:33,7/27/2019 19:16,0,26.7,26.7,1,Horizontal,-4,38,1.376,0,1,day
080f2a025645607050ba3ab667,7/26/2019 16:33,7/27/2019 19:16,0,26.7,26.7,1,Horizontal,-6,39,1.003,0,1,day
080f2a025645607050ba3ab667,7/26/2019 16:33,7/27/2019 19:16,0,26.7,26.7,1,Vertical,0,40,5.134,0,1,day
080f2a025645607050ba3ab667,7/26/2019 16:33,7/27/2019 19:16,0,26.7,26.7,1,Vertical,10,41,1.236,1,1,day
080f2a025645607050ba3ab667,7/26/2019 16:33,7/27/2019 19:16,0,26.7,26.7,1,Vertical,-4,42,6.506,0,1,day
080f2a025645607050ba3ab667,7/26/2019 16:33,7/27/2019 19:16,0,26.7,26.7,1,Horizontal,4,43,1.152,1,1,day
080f2a025645607050ba3ab667,7/26/2019 16:33,7/27/2019 19:16,0,26.7,26.7,1,Horizontal,6,44,1.045,1,1,day
080f2a025645607050ba3ab667,7/26/2019 16:33,7/27/2019 19:16,0,26.7,26.7,1,Horizontal,10,45,0.688,1,1,day
080f2a025645607050ba3ab667,7/26/2019 16:33,7/27/2019 19:16,0,26.7,26.7,1,Vertical,0,46,7.171,0,1,day
080f2a025645607050ba3ab667,7/26/2019 16:33,7/27/2019 19:16,0,26.7,26.7,1,Vertical,-8,47,6.271,0,1,day
080f2a025645607050ba3ab667,7/26/2019 16:33,7/27/2019 19:16,0,26.7,26.7,1,Vertical,8,48,1.079,1,1,day
080f2a025645607050ba3ab667,7/26/2019 16:33,7/27/2019 19:16,0,26.7,26.7,1,Horizontal,0,49,5.487,1,1,day
080f2a025645607050ba3ab667,7/26/2019 16:33,7/27/2019 19:16,0,26.7,26.7,1,Horizontal,2,50,0.837,1,1,day
080f2a025645607050ba3ab667,7/26/2019 16:33,7/27/2019 19:16,0,26.7,26.7,1,Horizontal,-2,51,0.629,0,1,day
080f2a025645607050ba3ab667,7/26/2019 16:33,7/27/2019 19:16,0,26.7,26.7,1,Vertical,4,52,8.788,1,1,day
080f2a025645607050ba3ab667,7/26/2019 16:33,7/27/2019 19:16,0,26.7,26.7,1,Vertical,-6,53,4.519,0,1,day
080f2a025645607050ba3ab667,7/26/2019 16:33,7/27/2019 19:16,0,26.7,26.7,1,Vertical,4,54,1.089,1,1,day
080f2a025645607050ba3ab667,7/26/2019 16:33,7/27/2019 19:16,0,26.7,26.7,1,Horizontal,-2,55,1.853,0,1,day
080f2a025645607050ba3ab667,7/26/2019 16:33,7/27/2019 19:16,0,26.7,26.7,1,Horizontal,-8,56,0.821,0,1,day
080f2a025645607050ba3ab667,7/26/2019 16:33,7/27/2019 19:16,0,26.7,26.7,1,Horizontal,2,57,0.846,1,1,day
080f2a025645607050ba3ab667,7/26/2019 16:33,7/27/2019 19:16,0,26.7,26.7,1,Vertical,0,58,43.025,1,1,day
080f2a025645607050ba3ab667,7/26/2019 16:33,7/27/2019 19:16,0,26.7,26.7,1,Vertical,4,59,24.564,1,1,day
080f2a025645607050ba3ab667,7/26/2019 16:33,7/27/2019 19:16,0,26.7,26.7,1,Vertical,6,60,2.316,1,1,day
080f2a025645607050ba3ab667,7/26/2019 16:33,7/27/2019 19:16,0,26.7,26.7,1,Horizontal,0,61,3.324,1,1,day
080f2a025645607050ba3ab667,7/26/2019 16:33,7/27/2019 19:16,0,26.7,26.7,1,Horizontal,6,62,0.812,1,1,day
080f2a025645607050ba3ab667,7/26/2019 16:33,7/27/2019 19:16,0,26.7,26.7,1,Horizontal,8,63,0.744,1,1,day
080f2a025645607050ba3ab667,7/26/2019 16:33,7/27/2019 19:16,0,26.7,26.7,1,Vertical,0,64,16.599,1,1,day
080f2a025645607050ba3ab667,7/26/2019 16:33,7/27/2019 19:16,0,26.7,26.7,1,Vertical,8,65,1.767,1,1,day
080f2a025645607050ba3ab667,7/26/2019 16:33,7/27/2019 19:16,0,26.7,26.7,1,Vertical,8,66,1.703,1,1,day
080f2a025645607050ba3ab667,7/26/2019 16:33,7/27/2019 19:16,0,26.7,26.7,1,Horizontal,0,67,4.109,1,1,day
080f2a025645607050ba3ab667,7/26/2019 16:33,7/27/2019 19:16,0,26.7,26.7,1,Horizontal,-10,68,0.73,0,1,day
080f2a025645607050ba3ab667,7/26/2019 16:33,7/27/2019 19:16,0,26.7,26.7,1,Horizontal,10,69,0.633,1,1,day
080f2a025645607050ba3ab667,7/26/2019 16:33,7/27/2019 19:16,0,26.7,26.7,1,Vertical,-6,70,4.798,0,1,day
080f2a025645607050ba3ab667,7/26/2019 16:33,7/27/2019 19:16,0,26.7,26.7,1,Vertical,-8,71,1.728,0,1,day
080f2a025645607050ba3ab667,7/26/2019 16:33,7/27/2019 19:16,0,26.7,26.7,1,Vertical,-2,72,16.867,0,1,day
080f2a025645607050ba3ab667,7/26/2019 16:33,7/27/2019 19:16,0,26.7,26.7,1,Horizontal,8,73,1.478,1,1,day
080f2a025645607050ba3ab667,7/26/2019 16:33,7/27/2019 19:16,0,26.7,26.7,1,Horizontal,-8,74,0.816,0,1,day
080f2a025645607050ba3ab667,7/26/2019 16:33,7/27/2019 19:16,0,26.7,26.7,1,Horizontal,-2,75,2.935,0,1,day
080f2a025645607050ba3ab667,7/26/2019 16:33,7/27/2019 19:16,0,26.7,26.7,1,Vertical,0,76,15.073,1,1,day
080f2a025645607050ba3ab667,7/26/2019 16:33,7/27/2019 19:16,0,26.7,26.7,1,Vertical,8,77,1.91,1,1,day
080f2a025645607050ba3ab667,7/26/2019 16:33,7/27/2019 19:16,0,26.7,26.7,1,Vertical,-8,78,3.578,0,1,day
080f2a025645607050ba3ab667,7/26/2019 16:33,7/27/2019 19:16,0,26.7,26.7,1,Horizontal,-6,79,0.972,0,1,day
080f2a025645607050ba3ab667,7/26/2019 16:33,7/27/2019 19:16,0,26.7,26.7,1,Horizontal,2,80,1.721,1,1,day
080f2a025645607050ba3ab667,7/26/2019 16:33,7/27/2019 19:16,0,26.7,26.7,1,Horizontal,6,81,1.373,1,1,day
080f2a025645607050ba3ab667,7/26/2019 16:33,7/27/2019 19:16,0,26.7,26.7,1,Vertical,-10,82,2.77,0,1,day
080f2a025645607050ba3ab667,7/26/2019 16:33,7/27/2019 19:16,0,26.7,26.7,1,Vertical,2,83,1.784,1,1,day
080f2a025645607050ba3ab667,7/26/2019 16:33,7/27/2019 19:16,0,26.7,26.7,1,Vertical,2,84,2.948,1,1,day
080f2a025645607050ba3ab667,7/26/2019 16:33,7/27/2019 19:16,0,26.7,26.7,1,Horizontal,0,85,5.069,1,1,day
080f2a025645607050ba3ab667,7/26/2019 16:33,7/27/2019 19:16,0,26.7,26.7,1,Horizontal,8,86,0.964,1,1,day
080f2a025645607050ba3ab667,7/26/2019 16:33,7/27/2019 19:16,0,26.7,26.7,1,Horizontal,-4,87,0.746,0,1,day
080f2a025645607050ba3ab667,7/26/2019 16:33,7/27/2019 19:16,0,26.7,26.7,1,Vertical,0,88,15.749,1,1,day
080f2a025645607050ba3ab667,7/26/2019 16:33,7/27/2019 19:16,0,26.7,26.7,1,Vertical,6,89,1.64,1,1,day
080f2a025645607050ba3ab667,7/26/2019 16:33,7/27/2019 19:16,0,26.7,26.7,1,Vertical,6,90,1.588,1,1,day
080f2a025645607050ba3ab667,7/26/2019 16:33,7/27/2019 19:16,0,26.7,26.7,1,Horizontal,0,91,3.541,1,1,day
080f2a025645607050ba3ab667,7/26/2019 16:33,7/27/2019 19:16,0,26.7,26.7,1,Horizontal,-6,92,0.681,0,1,day
080f2a025645607050ba3ab667,7/26/2019 16:33,7/27/2019 19:16,0,26.7,26.7,1,Horizontal,8,93,0.73,1,1,day
080f2a025645607050ba3ab667,7/26/2019 16:33,7/27/2019 19:16,0,26.7,26.7,1,Vertical,-6,94,2.476,0,1,day
080f2a025645607050ba3ab667,7/26/2019 16:33,7/27/2019 19:16,0,26.7,26.7,1,Vertical,-10,95,1.93,0,1,day
080f2a025645607050ba3ab667,7/26/2019 16:33,7/27/2019 19:16,0,26.7,26.7,1,Vertical,-8,96,13.696,0,1,day
080f2a025645607050ba3ab667,7/26/2019 16:33,7/27/2019 19:16,0,26.7,26.7,1,Horizontal,-4,97,1.187,0,1,day
080f2a025645607050ba3ab667,7/26/2019 16:33,7/27/2019 19:16,0,26.7,26.7,1,Horizontal,-10,98,0.87,0,1,day
080f2a025645607050ba3ab667,7/26/2019 16:33,7/27/2019 19:16,0,26.7,26.7,1,Horizontal,2,99,1.377,1,1,day
080f2a025645607050ba3ab667,7/26/2019 16:33,7/27/2019 19:16,0,26.7,26.7,1,Vertical,0,100,13.059,1,1,day
080f2a025645607050ba3ab667,7/26/2019 16:33,7/27/2019 19:16,0,26.7,26.7,1,Vertical,-4,101,13.224,0,1,day
080f2a025645607050ba3ab667,7/26/2019 16:33,7/27/2019 19:16,0,26.7,26.7,1,Vertical,-4,102,13.115,0,1,day
080f2a025645607050ba3ab667,7/26/2019 16:33,7/27/2019 19:16,0,26.7,26.7,1,Horizontal,4,103,1.414,1,1,day
080f2a025645607050ba3ab667,7/26/2019 16:33,7/27/2019 19:16,0,26.7,26.7,1,Horizontal,-6,104,0.967,0,1,day
080f2a025645607050ba3ab667,7/26/2019 16:33,7/27/2019 19:16,0,26.7,26.7,1,Horizontal,-10,105,0.934,0,1,day
080f2a025645607050ba3ab667,7/26/2019 16:33,7/27/2019 19:16,0,26.7,26.7,1,Vertical,-6,106,3.02,0,1,day
080f2a025645607050ba3ab667,7/26/2019 16:33,7/27/2019 19:16,0,26.7,26.7,1,Vertical,8,107,1.396,1,1,day
080f2a025645607050ba3ab667,7/26/2019 16:33,7/27/2019 19:16,0,26.7,26.7,1,Vertical,4,108,4.894,1,1,day
080f2a025645607050ba3ab667,7/26/2019 16:33,7/27/2019 19:16,0,26.7,26.7,1,Horizontal,2,109,1.409,1,1,day
080f2a025645607050ba3ab667,7/26/2019 16:33,7/27/2019 19:16,0,26.7,26.7,1,Horizontal,8,110,0.863,1,1,day
080f2a025645607050ba3ab667,7/26/2019 16:33,7/27/2019 19:16,0,26.7,26.7,1,Horizontal,-10,111,0.665,0,1,day
080f2a025645607050ba3ab667,7/26/2019 16:33,7/27/2019 19:16,0,26.7,26.7,1,Vertical,-8,112,2.782,0,1,day
080f2a025645607050ba3ab667,7/26/2019 16:33,7/27/2019 19:16,0,26.7,26.7,1,Vertical,-2,113,14.671,0,1,day
080f2a025645607050ba3ab667,7/26/2019 16:33,7/27/2019 19:16,0,26.7,26.7,1,Vertical,-6,114,3.444,0,1,day
080f2a025645607050ba3ab667,7/26/2019 16:33,7/27/2019 19:16,0,26.7,26.7,1,Horizontal,0,115,4.508,1,1,day
080f2a025645607050ba3ab667,7/26/2019 16:33,7/27/2019 19:16,0,26.7,26.7,1,Horizontal,10,116,0.676,1,1,day
080f2a025645607050ba3ab667,7/26/2019 16:33,7/27/2019 19:16,0,26.7,26.7,1,Horizontal,6,117,0.665,1,1,day
080f2a025645607050ba3ab667,7/26/2019 16:33,7/27/2019 19:16,0,26.7,26.7,1,Vertical,0,118,15.045,1,1,day
080f2a025645607050ba3ab667,7/26/2019 16:33,7/27/2019 19:16,0,26.7,26.7,1,Vertical,10,119,1.223,1,1,day
080f2a025645607050ba3ab667,7/26/2019 16:33,7/27/2019 19:16,0,26.7,26.7,1,Vertical,10,120,0.875,1,1,day
080f2a025645607050ba3ab667,7/26/2019 16:33,7/27/2019 19:16,0,26.7,26.7,1,Horizontal,6,121,1.745,1,1,day
080f2a025645607050ba3ab667,7/26/2019 16:33,7/27/2019 19:16,0,26.7,26.7,1,Horizontal,-2,122,0.75,0,1,day
080f2a025645607050ba3ab667,7/26/2019 16:33,7/27/2019 19:16,0,26.7,26.7,1,Horizontal,4,123,1.276,1,1,day
080f2a025645607050ba3ab667,7/26/2019 16:33,7/27/2019 19:16,0,26.7,26.7,1,Vertical,0,124,26.825,1,1,day
080f2a025645607050ba3ab667,7/26/2019 16:33,7/27/2019 19:16,0,26.7,26.7,1,Vertical,6,125,1.075,1,1,day
080f2a025645607050ba3ab667,7/26/2019 16:33,7/27/2019 19:16,0,26.7,26.7,1,Vertical,-6,126,12.154,0,1,day
080f2a025645607050ba3ab667,7/26/2019 16:33,7/27/2019 19:16,0,26.7,26.7,1,Horizontal,0,127,6.685,1,1,day
080f2a025645607050ba3ab667,7/26/2019 16:33,7/27/2019 19:16,0,26.7,26.7,1,Horizontal,6,128,0.71,1,1,day
080f2a025645607050ba3ab667,7/26/2019 16:33,7/27/2019 19:16,0,26.7,26.7,1,Horizontal,6,129,0.941,1,1,day
080f2a025645607050ba3ab667,7/26/2019 16:33,7/27/2019 19:16,0,26.7,26.7,1,Vertical,-2,130,11.468,0,1,day
080f2a025645607050ba3ab667,7/26/2019 16:33,7/27/2019 19:16,0,26.7,26.7,1,Vertical,6,131,3.814,1,1,day
080f2a025645607050ba3ab667,7/26/2019 16:33,7/27/2019 19:16,0,26.7,26.7,1,Vertical,4,132,9.703,1,1,day
080f2a025645607050ba3ab667,7/26/2019 16:33,7/27/2019 19:16,0,26.7,26.7,1,Horizontal,0,133,6.641,1,1,day
080f2a025645607050ba3ab667,7/26/2019 16:33,7/27/2019 19:16,0,26.7,26.7,1,Horizontal,-2,134,1.552,0,1,day
080f2a025645607050ba3ab667,7/26/2019 16:33,7/27/2019 19:16,0,26.7,26.7,1,Horizontal,-4,135,0.8,0,1,day
080f2a025645607050ba3ab667,7/26/2019 16:33,7/27/2019 19:16,0,26.7,26.7,1,Vertical,0,136,15.888,1,1,day
080f2a025645607050ba3ab667,7/26/2019 16:33,7/27/2019 19:16,0,26.7,26.7,1,Vertical,2,137,11.23,1,1,day
080f2a025645607050ba3ab667,7/26/2019 16:33,7/27/2019 19:16,0,26.7,26.7,1,Vertical,10,138,1.898,1,1,day
080f2a025645607050ba3ab667,7/26/2019 16:33,7/27/2019 19:16,0,26.7,26.7,1,Horizontal,-6,139,1.111,0,1,day
080f2a025645607050ba3ab667,7/26/2019 16:33,7/27/2019 19:16,0,26.7,26.7,1,Horizontal,8,140,0.646,1,1,day
080f2a025645607050ba3ab667,7/26/2019 16:33,7/27/2019 19:16,0,26.7,26.7,1,Horizontal,4,141,0.989,1,1,day
080f2a025645607050ba3ab667,7/26/2019 16:33,7/27/2019 19:16,0,26.7,26.7,1,Vertical,0,142,23.047,1,1,day
080f2a025645607050ba3ab667,7/26/2019 16:33,7/27/2019 19:16,0,26.7,26.7,1,Vertical,-4,143,10.649,1,1,day
080f2a025645607050ba3ab667,7/26/2019 16:33,7/27/2019 19:16,0,26.7,26.7,1,Vertical,2,144,10.742,1,1,day
080f2a025645607050ba3ab667,7/26/2019 16:33,7/27/2019 19:16,0,26.7,26.7,1,Horizontal,0,145,6.758,1,1,day
080f2a025645607050ba3ab667,7/26/2019 16:33,7/27/2019 19:16,0,26.7,26.7,1,Horizontal,2,146,2.506,1,1,day
080f2a025645607050ba3ab667,7/26/2019 16:33,7/27/2019 19:16,0,26.7,26.7,1,Horizontal,2,147,1.527,1,1,day
080f2a025645607050ba3ab667,7/26/2019 16:33,7/27/2019 19:16,0,26.7,26.7,1,Vertical,-8,148,3.174,0,1,day
080f2a025645607050ba3ab667,7/26/2019 16:33,7/27/2019 19:16,0,26.7,26.7,1,Vertical,-10,149,1.122,0,1,day
080f2a025645607050ba3ab667,7/26/2019 16:33,7/27/2019 19:16,0,26.7,26.7,1,Vertical,-2,150,26.953,1,1,day
080f2a025645607050ba3ab667,7/26/2019 16:33,7/27/2019 19:16,0,26.7,26.7,1,Horizontal,-4,151,1.387,0,1,day
080f2a025645607050ba3ab667,7/26/2019 16:33,7/27/2019 19:16,0,26.7,26.7,1,Horizontal,-10,152,0.849,0,1,day
080f2a025645607050ba3ab667,7/26/2019 16:33,7/27/2019 19:16,0,26.7,26.7,1,Horizontal,2,153,1.666,1,1,day
080f2a025645607050ba3ab667,7/26/2019 16:33,7/27/2019 19:16,0,26.7,26.7,1,Vertical,0,154,27.924,0,1,day
080f2a025645607050ba3ab667,7/26/2019 16:33,7/27/2019 19:16,0,26.7,26.7,1,Vertical,-8,155,3.002,0,1,day
080f2a025645607050ba3ab667,7/26/2019 16:33,7/27/2019 19:16,0,26.7,26.7,1,Vertical,2,156,11.569,1,1,day
080f2a025645607050ba3ab667,7/26/2019 16:33,7/27/2019 19:16,0,26.7,26.7,1,Horizontal,0,157,9.603,0,1,day
080f2a025645607050ba3ab667,7/26/2019 16:33,7/27/2019 19:16,0,26.7,26.7,1,Horizontal,4,158,0.867,1,1,day
080f2a025645607050ba3ab667,7/26/2019 16:33,7/27/2019 19:16,0,26.7,26.7,1,Horizontal,-2,159,2.063,0,1,day
080f2a025645607050ba3ab667,7/26/2019 16:33,7/27/2019 19:16,0,26.7,26.7,1,Vertical,8,160,2.425,1,1,day
080f2a025645607050ba3ab667,7/26/2019 16:33,7/27/2019 19:16,0,26.7,26.7,1,Vertical,-6,161,10.377,0,1,day
080f2a025645607050ba3ab667,7/26/2019 16:33,7/27/2019 19:16,0,26.7,26.7,1,Vertical,-4,162,14.553,0,1,day
080f2a025645607050ba3ab667,7/26/2019 16:33,7/27/2019 19:16,0,26.7,26.7,1,Horizontal,2,163,1.909,1,1,day
080f2a025645607050ba3ab667,7/26/2019 16:33,7/27/2019 19:16,0,26.7,26.7,1,Horizontal,8,164,0.78,1,1,day
080f2a025645607050ba3ab667,7/26/2019 16:33,7/27/2019 19:16,0,26.7,26.7,1,Horizontal,-8,165,1.274,0,1,day
080f2a025645607050ba3ab667,7/26/2019 16:33,7/27/2019 19:16,0,26.7,26.7,1,Vertical,-10,166,1.993,0,1,day
080f2a025645607050ba3ab667,7/26/2019 16:33,7/27/2019 19:16,0,26.7,26.7,1,Vertical,10,167,1.02,1,1,day
080f2a025645607050ba3ab667,7/26/2019 16:33,7/27/2019 19:16,0,26.7,26.7,1,Vertical,-4,168,10.352,0,1,day
080f2a025645607050ba3ab667,7/26/2019 16:33,7/27/2019 19:16,0,26.7,26.7,1,Horizontal,8,169,1.29,1,1,day
080f2a025645607050ba3ab667,7/26/2019 16:33,7/27/2019 19:16,0,26.7,26.7,1,Horizontal,8,170,0.615,1,1,day
080f2a025645607050ba3ab667,7/26/2019 16:33,7/27/2019 19:16,0,26.7,26.7,1,Horizontal,-8,171,0.672,0,1,day
080f2a025645607050ba3ab667,7/26/2019 16:33,7/27/2019 19:16,0,26.7,26.7,1,Vertical,0,172,10.618,1,1,day
080f2a025645607050ba3ab667,7/26/2019 16:33,7/27/2019 19:16,0,26.7,26.7,1,Vertical,8,173,1.087,1,1,day
080f2a025645607050ba3ab667,7/26/2019 16:33,7/27/2019 19:16,0,26.7,26.7,1,Vertical,-2,174,24.838,1,1,day
080f2a025645607050ba3ab667,7/26/2019 16:33,7/27/2019 19:16,0,26.7,26.7,1,Horizontal,0,175,4.477,1,1,day
080f2a025645607050ba3ab667,7/26/2019 16:33,7/27/2019 19:16,0,26.7,26.7,1,Horizontal,-8,176,0.612,0,1,day
080f2a025645607050ba3ab667,7/26/2019 16:33,7/27/2019 19:16,0,26.7,26.7,1,Horizontal,-4,177,0.751,0,1,day
080f2a025645607050ba3ab667,7/26/2019 16:33,7/27/2019 19:16,0,26.7,26.7,1,Vertical,8,178,1.669,1,1,day
080f2a025645607050ba3ab667,7/26/2019 16:33,7/27/2019 19:16,0,26.7,26.7,1,Vertical,-8,179,1.297,0,1,day
080f2a025645607050ba3ab667,7/26/2019 16:33,7/27/2019 19:16,0,26.7,26.7,1,Vertical,2,180,10.188,1,1,day
080f2a025645607050ba3ab667,7/26/2019 16:33,7/27/2019 19:16,0,26.7,26.7,1,Horizontal,10,181,1.164,1,1,day
080f2a025645607050ba3ab667,7/26/2019 16:33,7/27/2019 19:16,0,26.7,26.7,1,Horizontal,-6,182,0.673,0,1,day
080f2a025645607050ba3ab667,7/26/2019 16:33,7/27/2019 19:16,0,26.7,26.7,1,Horizontal,4,183,0.788,1,1,day
080f2a025645607050ba3ab667,7/26/2019 16:33,7/27/2019 19:16,0,26.7,26.7,1,Vertical,-6,184,1.809,0,1,day
080f2a025645607050ba3ab667,7/26/2019 16:33,7/27/2019 19:16,0,26.7,26.7,1,Vertical,-6,185,1.735,0,1,day
080f2a025645607050ba3ab667,7/26/2019 16:33,7/27/2019 19:16,0,26.7,26.7,1,Vertical,-10,186,1.653,0,1,day
080f2a025645607050ba3ab667,7/26/2019 16:33,7/27/2019 19:16,0,26.7,26.7,1,Horizontal,8,187,0.67,1,1,day
080f2a025645607050ba3ab667,7/26/2019 16:33,7/27/2019 19:16,0,26.7,26.7,1,Horizontal,-6,188,0.544,0,1,day
080f2a025645607050ba3ab667,7/26/2019 16:33,7/27/2019 19:16,0,26.7,26.7,1,Horizontal,-6,189,0.584,0,1,day
080f2a025645607050ba3ab667,7/26/2019 16:33,7/27/2019 19:16,0,26.7,26.7,1,Vertical,0,190,2.473,1,1,day
080f2a025645607050ba3ab667,7/26/2019 16:33,7/27/2019 19:16,0,26.7,26.7,1,Vertical,6,191,0.928,1,1,day
080f2a025645607050ba3ab667,7/26/2019 16:33,7/27/2019 19:16,0,26.7,26.7,1,Vertical,10,192,0.782,1,1,day
080f2a025645607050ba3ab667,7/26/2019 16:33,7/27/2019 19:16,0,26.7,26.7,1,Horizontal,0,193,0.601,0,1,day
080f2a025645607050ba3ab667,7/26/2019 16:33,7/27/2019 19:16,0,26.7,26.7,1,Horizontal,6,194,0.661,1,1,day
080f2a025645607050ba3ab667,7/26/2019 16:33,7/27/2019 19:16,0,26.7,26.7,1,Horizontal,2,195,1.531,1,1,day
080f2a025645607050ba3ab667,7/26/2019 16:33,7/27/2019 19:16,0,26.7,26.7,1,Vertical,-8,196,1.684,0,1,day
080f2a025645607050ba3ab667,7/26/2019 16:33,7/27/2019 19:16,0,26.7,26.7,1,Vertical,-4,197,12.551,0,1,day
080f2a025645607050ba3ab667,7/26/2019 16:33,7/27/2019 19:16,0,26.7,26.7,1,Vertical,8,198,1.438,1,1,day
080f2a025645607050ba3ab667,7/26/2019 16:33,7/27/2019 19:16,0,26.7,26.7,1,Horizontal,0,199,3.678,1,1,day
080f2a025645607050ba3ab667,7/26/2019 16:33,7/27/2019 19:16,0,26.7,26.7,1,Horizontal,-10,200,0.614,0,1,day
080f2a025645607050ba3ab667,7/26/2019 16:33,7/27/2019 19:16,0,26.7,26.7,1,Horizontal,-8,201,0.637,0,1,day
080f2a025645607050ba3ab667,7/26/2019 16:33,7/27/2019 19:16,0,26.7,26.7,1,Vertical,-8,202,2.155,0,1,day
080f2a025645607050ba3ab667,7/26/2019 16:33,7/27/2019 19:16,0,26.7,26.7,1,Vertical,4,203,1.781,1,1,day
080f2a025645607050ba3ab667,7/26/2019 16:33,7/27/2019 19:16,0,26.7,26.7,1,Vertical,4,204,2.074,1,1,day
080f2a025645607050ba3ab667,7/26/2019 16:33,7/27/2019 19:16,0,26.7,26.7,1,Horizontal,0,205,3.312,0,1,day
080f2a025645607050ba3ab667,7/26/2019 16:33,7/27/2019 19:16,0,26.7,26.7,1,Horizontal,10,206,0.666,1,1,day
080f2a025645607050ba3ab667,7/26/2019 16:33,7/27/2019 19:16,0,26.7,26.7,1,Horizontal,-2,207,2.114,0,1,day
080f2a025645607050ba3ab667,7/26/2019 16:33,7/27/2019 19:16,0,26.7,26.7,1,Vertical,0,208,5.57,1,1,day
080f2a025645607050ba3ab667,7/26/2019 16:33,7/27/2019 19:16,0,26.7,26.7,1,Vertical,4,209,2.021,1,1,day
080f2a025645607050ba3ab667,7/26/2019 16:33,7/27/2019 19:16,0,26.7,26.7,1,Vertical,8,210,2.712,1,1,day
080f2a025645607050ba3ab667,7/26/2019 16:33,7/27/2019 19:16,0,26.7,26.7,1,Horizontal,6,211,2.027,1,1,day
080f2a025645607050ba3ab667,7/26/2019 16:33,7/27/2019 19:16,0,26.7,26.7,1,Horizontal,-8,212,0.656,0,1,day
080f2a025645607050ba3ab667,7/26/2019 16:33,7/27/2019 19:16,0,26.7,26.7,1,Horizontal,-10,213,0.618,0,1,day
080f2a025645607050ba3ab667,7/26/2019 16:33,7/27/2019 19:16,0,26.7,26.7,1,Vertical,0,214,12.296,1,1,day
080f2a025645607050ba3ab667,7/26/2019 16:33,7/27/2019 19:16,0,26.7,26.7,1,Vertical,10,215,1.342,1,1,day
080f2a025645607050ba3ab667,7/26/2019 16:33,7/27/2019 19:16,0,26.7,26.7,1,Vertical,4,216,1.67,1,1,day
080f2a025645607050ba3ab667,7/26/2019 16:33,7/27/2019 19:16,0,26.7,26.7,1,Horizontal,0,217,5.494,1,1,day
080f2a025645607050ba3ab667,7/26/2019 16:33,7/27/2019 19:16,0,26.7,26.7,1,Horizontal,-4,218,0.75,0,1,day
080f2a025645607050ba3ab667,7/26/2019 16:33,7/27/2019 19:16,0,26.7,26.7,1,Horizontal,10,219,0.625,1,1,day
080f2a025645607050ba3ab667,7/26/2019 16:33,7/27/2019 19:16,0,26.7,26.7,1,Vertical,2,220,1.985,1,1,day
080f2a025645607050ba3ab667,7/26/2019 16:33,7/27/2019 19:16,0,26.7,26.7,1,Vertical,-4,221,11.497,1,1,day
080f2a025645607050ba3ab667,7/26/2019 16:33,7/27/2019 19:16,0,26.7,26.7,1,Vertical,-2,222,11.511,1,1,day
080f2a025645607050ba3ab667,7/26/2019 16:33,7/27/2019 19:16,0,26.7,26.7,1,Horizontal,0,223,1.445,0,1,day
080f2a025645607050ba3ab667,7/26/2019 16:33,7/27/2019 19:16,0,26.7,26.7,1,Horizontal,10,224,0.777,1,1,day
080f2a025645607050ba3ab667,7/26/2019 16:33,7/27/2019 19:16,0,26.7,26.7,1,Horizontal,-10,225,0.577,0,1,day
080f2a025645607050ba3ab667,7/26/2019 16:33,7/27/2019 19:16,0,26.7,26.7,1,Vertical,0,226,3.355,1,1,day
080f2a025645607050ba3ab667,7/26/2019 16:33,7/27/2019 19:16,0,26.7,26.7,1,Vertical,6,227,1.732,1,1,day
080f2a025645607050ba3ab667,7/26/2019 16:33,7/27/2019 19:16,0,26.7,26.7,1,Vertical,6,228,2.281,1,1,day
080f2a025645607050ba3ab667,7/26/2019 16:33,7/27/2019 19:16,0,26.7,26.7,1,Horizontal,-10,229,1.024,0,1,day
080f2a025645607050ba3ab667,7/26/2019 16:33,7/27/2019 19:16,0,26.7,26.7,1,Horizontal,10,230,0.642,1,1,day
080f2a025645607050ba3ab667,7/26/2019 16:33,7/27/2019 19:16,0,26.7,26.7,1,Horizontal,4,231,1.08,1,1,day
080f2a025645607050ba3ab667,7/26/2019 16:33,7/27/2019 19:16,0,26.7,26.7,1,Vertical,0,232,3.664,1,1,day
080f2a025645607050ba3ab667,7/26/2019 16:33,7/27/2019 19:16,0,26.7,26.7,1,Vertical,-6,233,2.699,0,1,day
080f2a025645607050ba3ab667,7/26/2019 16:33,7/27/2019 19:16,0,26.7,26.7,1,Vertical,-2,234,1.804,1,1,day
080f2a025645607050ba3ab667,7/26/2019 16:33,7/27/2019 19:16,0,26.7,26.7,1,Horizontal,-2,235,2.285,0,1,day
080f2a025645607050ba3ab667,7/26/2019 16:33,7/27/2019 19:16,0,26.7,26.7,1,Horizontal,-4,236,1.017,0,1,day
080f2a025645607050ba3ab667,7/26/2019 16:33,7/27/2019 19:16,0,26.7,26.7,1,Horizontal,-6,237,0.659,0,1,day
080f2a025645607050ba3ab667,7/26/2019 16:33,7/27/2019 19:16,0,26.7,26.7,1,Vertical,-10,238,2.103,0,1,day
080f2a025645607050ba3ab667,7/26/2019 16:33,7/27/2019 19:16,0,26.7,26.7,1,Vertical,10,239,0.929,1,1,day
080f2a025645607050ba3ab667,7/26/2019 16:33,7/27/2019 19:16,0,26.7,26.7,1,Vertical,-10,240,1.487,0,1,day
080f2a025645607050ba3ab667,7/26/2019 16:33,7/27/2019 19:16,0,26.7,26.7,1,Horizontal,10,241,1.141,1,1,day
080f2a025645607050ba3ab667,7/26/2019 16:33,7/27/2019 19:16,0,26.7,26.7,1,Horizontal,-6,242,0.63,0,1,day
080f2a025645607050ba3ab667,7/26/2019 16:33,7/27/2019 19:16,0,26.7,26.7,1,Horizontal,-10,243,0.666,0,1,day
080f2a025645607050ba3ab667,7/26/2019 16:33,7/27/2019 19:16,0,26.7,26.7,1,Vertical,-4,244,5.557,0,1,day
080f2a025645607050ba3ab667,7/26/2019 16:33,7/27/2019 19:16,0,26.7,26.7,1,Vertical,10,245,0.724,1,1,day
080f2a025645607050ba3ab667,7/26/2019 16:33,7/27/2019 19:16,0,26.7,26.7,1,Vertical,-10,246,0.861,0,1,day
080f2a025645607050ba3ab667,7/26/2019 16:33,7/27/2019 19:16,0,26.7,26.7,1,Horizontal,0,247,2.821,1,1,day
080f2a025645607050ba3ab667,7/26/2019 16:33,7/27/2019 19:16,0,26.7,26.7,1,Horizontal,-4,248,0.656,0,1,day
080f2a025645607050ba3ab667,7/26/2019 16:33,7/27/2019 19:16,0,26.7,26.7,1,Horizontal,-2,249,2.031,0,1,day
080f2a025645607050ba3ab667,7/26/2019 16:33,7/27/2019 19:16,0,26.7,26.7,1,Vertical,2,250,2.121,1,1,day
080f2a025645607050ba3ab667,7/26/2019 16:33,7/27/2019 19:16,0,26.7,26.7,1,Vertical,-4,251,10.163,1,1,day
080f2a025645607050ba3ab667,7/26/2019 16:33,7/27/2019 19:16,0,26.7,26.7,1,Vertical,6,252,1.4,1,1,day
080f2a025645607050ba3ab667,7/26/2019 16:33,7/27/2019 19:16,0,26.7,26.7,1,Horizontal,0,253,3.124,1,1,day
080f2a025645607050ba3ab667,7/26/2019 16:33,7/27/2019 19:16,0,26.7,26.7,1,Horizontal,-2,254,2.305,0,1,day
080f2a025645607050ba3ab667,7/26/2019 16:33,7/27/2019 19:16,0,26.7,26.7,1,Horizontal,10,255,0.709,1,1,day
080f2a025645607050ba3ab667,7/26/2019 16:33,7/27/2019 19:16,0,26.7,26.7,1,Vertical,0,256,15.953,1,1,day
080f2a025645607050ba3ab667,7/26/2019 16:33,7/27/2019 19:16,0,26.7,26.7,1,Vertical,2,257,3.131,1,1,day
080f2a025645607050ba3ab667,7/26/2019 16:33,7/27/2019 19:16,0,26.7,26.7,1,Vertical,-10,258,0.879,0,1,day
080f2a025645607050ba3ab667,7/26/2019 16:33,7/27/2019 19:16,0,26.7,26.7,1,Horizontal,4,259,0.995,1,1,day
080f2a025645607050ba3ab667,7/26/2019 16:33,7/27/2019 19:16,0,26.7,26.7,1,Horizontal,-8,260,0.801,0,1,day
080f2a025645607050ba3ab667,7/26/2019 16:33,7/27/2019 19:16,0,26.7,26.7,1,Horizontal,4,261,1.367,1,1,day
080f2a025645607050ba3ab667,7/26/2019 16:33,7/27/2019 19:16,0,26.7,26.7,1,Vertical,6,262,1.669,1,1,day
080f2a025645607050ba3ab667,7/26/2019 16:33,7/27/2019 19:16,0,26.7,26.7,1,Vertical,10,263,0.756,1,1,day
080f2a025645607050ba3ab667,7/26/2019 16:33,7/27/2019 19:16,0,26.7,26.7,1,Vertical,-2,264,3.972,1,1,day
080f2a025645607050ba3ab667,7/26/2019 16:33,7/27/2019 19:16,0,26.7,26.7,1,Horizontal,0,265,2.226,1,1,day
080f2a025645607050ba3ab667,7/26/2019 16:33,7/27/2019 19:16,0,26.7,26.7,1,Horizontal,4,266,0.916,1,1,day
080f2a025645607050ba3ab667,7/26/2019 16:33,7/27/2019 19:16,0,26.7,26.7,1,Horizontal,-4,267,1.579,0,1,day
080f2a025645607050ba3ab667,7/26/2019 16:33,7/27/2019 19:16,0,26.7,26.7,1,Vertical,0,268,3.406,1,1,day
080f2a025645607050ba3ab667,7/26/2019 16:33,7/27/2019 19:16,0,26.7,26.7,1,Vertical,-2,269,11.766,1,1,day
080f2a025645607050ba3ab667,7/26/2019 16:33,7/27/2019 19:16,0,26.7,26.7,1,Vertical,4,270,2.173,1,1,day
080f2a025645607050ba3ab667,7/26/2019 16:33,7/27/2019 19:16,0,26.7,26.7,1,Horizontal,-8,271,0.88,0,1,day
080f2a025645607050ba3ab667,7/26/2019 16:33,7/27/2019 19:16,0,26.7,26.7,1,Horizontal,-8,272,0.871,0,1,day
080f2a025645607050ba3ab667,7/26/2019 16:33,7/27/2019 19:16,0,26.7,26.7,1,Horizontal,6,273,0.706,1,1,day
080f2a025645607050ba3ab667,7/26/2019 16:33,7/27/2019 19:16,0,26.7,26.7,1,Vertical,-10,274,1.548,0,1,day
080f2a025645607050ba3ab667,7/26/2019 16:33,7/27/2019 19:16,0,26.7,26.7,1,Vertical,2,275,1.745,1,1,day
080f2a025645607050ba3ab667,7/26/2019 16:33,7/27/2019 19:16,0,26.7,26.7,1,Vertical,-2,276,13.004,0,1,day
080f2a025645607050ba3ab667,7/26/2019 16:33,7/27/2019 19:16,0,26.7,26.7,1,Horizontal,0,277,1.951,1,1,day
080f2a025645607050ba3ab667,7/26/2019 16:33,7/27/2019 19:16,0,26.7,26.7,1,Horizontal,-4,278,0.841,0,1,day
080f2a025645607050ba3ab667,7/26/2019 16:33,7/27/2019 19:16,0,26.7,26.7,1,Horizontal,-6,279,0.707,0,1,day
080f2a025645607050ba3ab667,7/26/2019 16:33,7/27/2019 19:16,0,26.7,26.7,1,Vertical,0,280,3.157,1,1,day
080f2a025645607050ba3ab667,7/26/2019 16:33,7/27/2019 19:16,0,26.7,26.7,1,Vertical,10,281,0.884,1,1,day
080f2a025645607050ba3ab667,7/26/2019 16:33,7/27/2019 19:16,0,26.7,26.7,1,Vertical,-4,282,9.243,0,1,day
080f2a025645607050ba3ab667,7/26/2019 16:33,7/27/2019 19:16,0,26.7,26.7,1,Horizontal,4,283,1.215,1,1,day
080f2a025645607050ba3ab667,7/26/2019 16:33,7/27/2019 19:16,0,26.7,26.7,1,Horizontal,6,284,0.665,1,1,day
080f2a025645607050ba3ab667,7/26/2019 16:33,7/27/2019 19:16,0,26.7,26.7,1,Horizontal,10,285,0.728,1,1,day
080f2a025645607050ba3ab667,7/26/2019 16:33,7/27/2019 19:16,0,26.7,26.7,1,Vertical,0,286,5.262,1,1,day
080f2a025645607050ba3ab667,7/26/2019 16:33,7/27/2019 19:16,0,26.7,26.7,1,Vertical,-8,287,2.455,0,1,day
080f2a025645607050ba3ab667,7/26/2019 16:33,7/27/2019 19:16,0,26.7,26.7,1,Vertical,8,288,1.073,1,1,day
080f2a025645607050ba3ab667,7/26/2019 16:33,7/27/2019 19:16,0,26.7,26.7,1,Horizontal,0,289,2.063,0,1,day
080f2a025645607050ba3ab667,7/26/2019 16:33,7/27/2019 19:16,0,26.7,26.7,1,Horizontal,2,290,1.407,1,1,day
080f2a025645607050ba3ab667,7/26/2019 16:33,7/27/2019 19:16,0,26.7,26.7,1,Horizontal,-2,291,0.659,0,1,day
080f2a025645607050ba3ab667,7/26/2019 16:33,7/27/2019 19:16,0,26.7,26.7,1,Vertical,4,292,1.883,1,1,day
080f2a025645607050ba3ab667,7/26/2019 16:33,7/27/2019 19:16,0,26.7,26.7,1,Vertical,-6,293,1.989,0,1,day
080f2a025645607050ba3ab667,7/26/2019 16:33,7/27/2019 19:16,0,26.7,26.7,1,Vertical,4,294,1.661,1,1,day
080f2a025645607050ba3ab667,7/26/2019 16:33,7/27/2019 19:16,0,26.7,26.7,1,Horizontal,-2,295,1.072,0,1,day
080f2a025645607050ba3ab667,7/26/2019 16:33,7/27/2019 19:16,0,26.7,26.7,1,Horizontal,-8,296,0.64,0,1,day
080f2a025645607050ba3ab667,7/26/2019 16:33,7/27/2019 19:16,0,26.7,26.7,1,Horizontal,2,297,1.277,1,1,day
080f2a025645607050ba3ab667,7/26/2019 16:33,7/27/2019 19:16,0,26.7,26.7,1,Vertical,0,298,15.484,1,1,day
080f2a025645607050ba3ab667,7/26/2019 16:33,7/27/2019 19:16,0,26.7,26.7,1,Vertical,4,299,2.513,1,1,day
080f2a025645607050ba3ab667,7/26/2019 16:33,7/27/2019 19:16,0,26.7,26.7,1,Vertical,6,300,1.382,1,1,day
080f2a025645607050ba3ab667,7/26/2019 16:33,7/27/2019 19:16,0,26.7,26.7,1,Horizontal,0,301,8.45,1,1,day
080f2a025645607050ba3ab667,7/26/2019 16:33,7/27/2019 19:16,0,26.7,26.7,1,Horizontal,6,302,0.644,1,1,day
080f2a025645607050ba3ab667,7/26/2019 16:33,7/27/2019 19:16,0,26.7,26.7,1,Horizontal,8,303,0.712,1,1,day
080f2a025645607050ba3ab667,7/26/2019 16:33,7/27/2019 19:16,0,26.7,26.7,1,Vertical,0,304,2.386,1,1,day
080f2a025645607050ba3ab667,7/26/2019 16:33,7/27/2019 19:16,0,26.7,26.7,1,Vertical,8,305,0.874,1,1,day
080f2a025645607050ba3ab667,7/26/2019 16:33,7/27/2019 19:16,0,26.7,26.7,1,Vertical,8,306,1.165,1,1,day
080f2a025645607050ba3ab667,7/26/2019 16:33,7/27/2019 19:16,0,26.7,26.7,1,Horizontal,0,307,3.886,1,1,day
080f2a025645607050ba3ab667,7/26/2019 16:33,7/27/2019 19:16,0,26.7,26.7,1,Horizontal,-10,308,0.6,0,1,day
080f2a025645607050ba3ab667,7/26/2019 16:33,7/27/2019 19:16,0,26.7,26.7,1,Horizontal,10,309,0.607,1,1,day
080f2a025645607050ba3ab667,7/26/2019 16:33,7/27/2019 19:16,0,26.7,26.7,1,Vertical,-6,310,1.295,0,1,day
080f2a025645607050ba3ab667,7/26/2019 16:33,7/27/2019 19:16,0,26.7,26.7,1,Vertical,-8,311,1.458,0,1,day
080f2a025645607050ba3ab667,7/26/2019 16:33,7/27/2019 19:16,0,26.7,26.7,1,Vertical,-2,312,3.906,1,1,day
080f2a025645607050ba3ab667,7/26/2019 16:33,7/27/2019 19:16,0,26.7,26.7,1,Horizontal,8,313,0.624,1,1,day
080f2a025645607050ba3ab667,7/26/2019 16:33,7/27/2019 19:16,0,26.7,26.7,1,Horizontal,-8,314,0.573,0,1,day
080f2a025645607050ba3ab667,7/26/2019 16:33,7/27/2019 19:16,0,26.7,26.7,1,Horizontal,-2,315,1.328,0,1,day
080f2a025645607050ba3ab667,7/26/2019 16:33,7/27/2019 19:16,0,26.7,26.7,1,Vertical,0,316,3.82,1,1,day
080f2a025645607050ba3ab667,7/26/2019 16:33,7/27/2019 19:16,0,26.7,26.7,1,Vertical,8,317,1.462,1,1,day
080f2a025645607050ba3ab667,7/26/2019 16:33,7/27/2019 19:16,0,26.7,26.7,1,Vertical,-8,318,1.621,0,1,day
080f2a025645607050ba3ab667,7/26/2019 16:33,7/27/2019 19:16,0,26.7,26.7,1,Horizontal,-6,319,0.874,0,1,day
080f2a025645607050ba3ab667,7/26/2019 16:33,7/27/2019 19:16,0,26.7,26.7,1,Horizontal,2,320,1.612,1,1,day
080f2a025645607050ba3ab667,7/26/2019 16:33,7/27/2019 19:16,0,26.7,26.7,1,Horizontal,6,321,0.722,1,1,day
080f2a025645607050ba3ab667,7/26/2019 16:33,7/27/2019 19:16,0,26.7,26.7,1,Vertical,-10,322,1.699,0,1,day
080f2a025645607050ba3ab667,7/26/2019 16:33,7/27/2019 19:16,0,26.7,26.7,1,Vertical,2,323,1.702,1,1,day
080f2a025645607050ba3ab667,7/26/2019 16:33,7/27/2019 19:16,0,26.7,26.7,1,Vertical,2,324,1.661,1,1,day
080f2a025645607050ba3ab667,7/26/2019 16:33,7/27/2019 19:16,0,26.7,26.7,1,Horizontal,0,325,1.916,1,1,day
080f2a025645607050ba3ab667,7/26/2019 16:33,7/27/2019 19:16,0,26.7,26.7,1,Horizontal,8,326,0.693,1,1,day
080f2a025645607050ba3ab667,7/26/2019 16:33,7/27/2019 19:16,0,26.7,26.7,1,Horizontal,-4,327,1.038,0,1,day
080f2a025645607050ba3ab667,7/26/2019 16:33,7/27/2019 19:16,0,26.7,26.7,1,Vertical,0,328,4.3,1,1,day
080f2a025645607050ba3ab667,7/26/2019 16:33,7/27/2019 19:16,0,26.7,26.7,1,Vertical,6,329,1.655,1,1,day
080f2a025645607050ba3ab667,7/26/2019 16:33,7/27/2019 19:16,0,26.7,26.7,1,Vertical,6,330,1.379,1,1,day
080f2a025645607050ba3ab667,7/26/2019 16:33,7/27/2019 19:16,0,26.7,26.7,1,Horizontal,0,331,3.56,1,1,day
080f2a025645607050ba3ab667,7/26/2019 16:33,7/27/2019 19:16,0,26.7,26.7,1,Horizontal,-6,332,0.624,0,1,day
080f2a025645607050ba3ab667,7/26/2019 16:33,7/27/2019 19:16,0,26.7,26.7,1,Horizontal,8,333,0.599,1,1,day
080f2a025645607050ba3ab667,7/26/2019 16:33,7/27/2019 19:16,0,26.7,26.7,1,Vertical,-6,334,2.167,0,1,day
080f2a025645607050ba3ab667,7/26/2019 16:33,7/27/2019 19:16,0,26.7,26.7,1,Vertical,-10,335,1.182,0,1,day
080f2a025645607050ba3ab667,7/26/2019 16:33,7/27/2019 19:16,0,26.7,26.7,1,Vertical,-8,336,1.886,0,1,day
080f2a025645607050ba3ab667,7/26/2019 16:33,7/27/2019 19:16,0,26.7,26.7,1,Horizontal,-4,337,1.342,0,1,day
080f2a025645607050ba3ab667,7/26/2019 16:33,7/27/2019 19:16,0,26.7,26.7,1,Horizontal,-10,338,0.583,0,1,day
080f2a025645607050ba3ab667,7/26/2019 16:33,7/27/2019 19:16,0,26.7,26.7,1,Horizontal,2,339,1.443,1,1,day
080f2a025645607050ba3ab667,7/26/2019 16:33,7/27/2019 19:16,0,26.7,26.7,1,Vertical,0,340,3.121,1,1,day
080f2a025645607050ba3ab667,7/26/2019 16:33,7/27/2019 19:16,0,26.7,26.7,1,Vertical,-4,341,13.37,0,1,day
080f2a025645607050ba3ab667,7/26/2019 16:33,7/27/2019 19:16,0,26.7,26.7,1,Vertical,-4,342,8.539,0,1,day
080f2a025645607050ba3ab667,7/26/2019 16:33,7/27/2019 19:16,0,26.7,26.7,1,Horizontal,4,343,1.415,1,1,day
080f2a025645607050ba3ab667,7/26/2019 16:33,7/27/2019 19:16,0,26.7,26.7,1,Horizontal,-6,344,0.626,0,1,day
080f2a025645607050ba3ab667,7/26/2019 16:33,7/27/2019 19:16,0,26.7,26.7,1,Horizontal,-10,345,0.589,0,1,day
080f2a025645607050ba3ab667,7/26/2019 16:33,7/27/2019 19:16,0,26.7,26.7,1,Vertical,-6,346,1.312,0,1,day
080f2a025645607050ba3ab667,7/26/2019 16:33,7/27/2019 19:16,0,26.7,26.7,1,Vertical,8,347,0.845,1,1,day
080f2a025645607050ba3ab667,7/26/2019 16:33,7/27/2019 19:16,0,26.7,26.7,1,Vertical,4,348,1.193,1,1,day
080f2a025645607050ba3ab667,7/26/2019 16:33,7/27/2019 19:16,0,26.7,26.7,1,Horizontal,2,349,1.289,1,1,day
080f2a025645607050ba3ab667,7/26/2019 16:33,7/27/2019 19:16,0,26.7,26.7,1,Horizontal,8,350,0.683,1,1,day
080f2a025645607050ba3ab667,7/26/2019 16:33,7/27/2019 19:16,0,26.7,26.7,1,Horizontal,-10,351,0.558,0,1,day
080f2a025645607050ba3ab667,7/26/2019 16:33,7/27/2019 19:16,0,26.7,26.7,1,Vertical,-8,352,1.318,0,1,day
080f2a025645607050ba3ab667,7/26/2019 16:33,7/27/2019 19:16,0,26.7,26.7,1,Vertical,-2,353,3.523,1,1,day
080f2a025645607050ba3ab667,7/26/2019 16:33,7/27/2019 19:16,0,26.7,26.7,1,Vertical,-6,354,1.216,0,1,day
080f2a025645607050ba3ab667,7/26/2019 16:33,7/27/2019 19:16,0,26.7,26.7,1,Horizontal,0,355,2.618,1,1,day
080f2a025645607050ba3ab667,7/26/2019 16:33,7/27/2019 19:16,0,26.7,26.7,1,Horizontal,10,356,0.831,1,1,day
080f2a025645607050ba3ab667,7/26/2019 16:33,7/27/2019 19:16,0,26.7,26.7,1,Horizontal,6,357,0.704,1,1,day
080f2a025645607050ba3ab667,7/26/2019 16:33,7/27/2019 19:16,0,26.7,26.7,1,Vertical,0,358,3.601,1,1,day
080f2a025645607050ba3ab667,7/26/2019 16:33,7/27/2019 19:16,0,26.7,26.7,1,Vertical,10,359,0.779,1,1,day
080f2a025645607050ba3ab667,7/26/2019 16:33,7/27/2019 19:16,0,26.7,26.7,1,Vertical,10,360,0.919,1,1,day
080f2a025645607050ba3ab667,7/26/2019 16:33,7/27/2019 19:16,0,26.7,26.7,1,Horizontal,6,361,1.588,1,1,day
080f2a025645607050ba3ab667,7/26/2019 16:33,7/27/2019 19:16,0,26.7,26.7,1,Horizontal,-2,362,1.604,0,1,day
080f2a025645607050ba3ab667,7/26/2019 16:33,7/27/2019 19:16,0,26.7,26.7,1,Horizontal,4,363,0.962,1,1,day
080f2a025645607050ba3ab667,7/26/2019 16:33,7/27/2019 19:16,0,26.7,26.7,1,Vertical,0,364,2.793,1,1,day
080f2a025645607050ba3ab667,7/26/2019 16:33,7/27/2019 19:16,0,26.7,26.7,1,Vertical,6,365,0.727,1,1,day
080f2a025645607050ba3ab667,7/26/2019 16:33,7/27/2019 19:16,0,26.7,26.7,1,Vertical,-6,366,1.664,0,1,day
080f2a025645607050ba3ab667,7/26/2019 16:33,7/27/2019 19:16,0,26.7,26.7,1,Horizontal,0,367,4.374,0,1,day
080f2a025645607050ba3ab667,7/26/2019 16:33,7/27/2019 19:16,0,26.7,26.7,1,Horizontal,6,368,0.675,1,1,day
080f2a025645607050ba3ab667,7/26/2019 16:33,7/27/2019 19:16,0,26.7,26.7,1,Horizontal,6,369,0.926,1,1,day
080f2a025645607050ba3ab667,7/26/2019 16:33,7/27/2019 19:16,0,26.7,26.7,1,Vertical,-2,370,10.879,0,1,day
080f2a025645607050ba3ab667,7/26/2019 16:33,7/27/2019 19:16,0,26.7,26.7,1,Vertical,6,371,0.993,1,1,day
080f2a025645607050ba3ab667,7/26/2019 16:33,7/27/2019 19:16,0,26.7,26.7,1,Vertical,4,372,1.401,1,1,day
080f2a025645607050ba3ab667,7/26/2019 16:33,7/27/2019 19:16,0,26.7,26.7,1,Horizontal,0,373,3.211,1,1,day
080f2a025645607050ba3ab667,7/26/2019 16:33,7/27/2019 19:16,0,26.7,26.7,1,Horizontal,-2,374,0.775,0,1,day
080f2a025645607050ba3ab667,7/26/2019 16:33,7/27/2019 19:16,0,26.7,26.7,1,Horizontal,-4,375,0.657,0,1,day
080f2a025645607050ba3ab667,7/26/2019 16:33,7/27/2019 19:16,0,26.7,26.7,1,Vertical,0,376,2.935,1,1,day
080f2a025645607050ba3ab667,7/26/2019 16:33,7/27/2019 19:16,0,26.7,26.7,1,Vertical,2,377,1.303,1,1,day
080f2a025645607050ba3ab667,7/26/2019 16:33,7/27/2019 19:16,0,26.7,26.7,1,Vertical,10,378,0.727,1,1,day
080f2a025645607050ba3ab667,7/26/2019 16:33,7/27/2019 19:16,0,26.7,26.7,1,Horizontal,-6,379,0.902,0,1,day
080f2a025645607050ba3ab667,7/26/2019 16:33,7/27/2019 19:16,0,26.7,26.7,1,Horizontal,8,380,0.626,1,1,day
080f2a025645607050ba3ab667,7/26/2019 16:33,7/27/2019 19:16,0,26.7,26.7,1,Horizontal,4,381,0.674,1,1,day
080f2a025645607050ba3ab667,7/26/2019 16:33,7/27/2019 19:16,0,26.7,26.7,1,Vertical,0,382,14.961,1,1,day
080f2a025645607050ba3ab667,7/26/2019 16:33,7/27/2019 19:16,0,26.7,26.7,1,Vertical,-4,383,11.77,0,1,day
080f2a025645607050ba3ab667,7/26/2019 16:33,7/27/2019 19:16,0,26.7,26.7,1,Vertical,2,384,2.467,1,1,day
080f2a025645607050ba3ab667,7/26/2019 16:33,7/27/2019 19:16,0,26.7,26.7,1,Horizontal,0,385,4.228,1,1,day
080f2a025645607050ba3ab667,7/26/2019 16:33,7/27/2019 19:16,0,26.7,26.7,1,Horizontal,2,386,1.655,1,1,day
080f2a025645607050ba3ab667,7/26/2019 16:33,7/27/2019 19:16,0,26.7,26.7,1,Horizontal,2,387,1.531,1,1,day
080f2a025645607050ba3ab667,7/26/2019 16:33,7/27/2019 19:16,0,26.7,26.7,1,Vertical,-8,388,1.624,0,1,day
080f2a025645607050ba3ab667,7/26/2019 16:33,7/27/2019 19:16,0,26.7,26.7,1,Vertical,-10,389,1.242,0,1,day
080f2a025645607050ba3ab667,7/26/2019 16:33,7/27/2019 19:16,0,26.7,26.7,1,Vertical,-2,390,2.878,1,1,day
080f2a025645607050ba3ab667,7/26/2019 16:33,7/27/2019 19:16,0,26.7,26.7,1,Horizontal,-4,391,1.298,0,1,day
080f2a025645607050ba3ab667,7/26/2019 16:33,7/27/2019 19:16,0,26.7,26.7,1,Horizontal,-10,392,0.861,0,1,day
080f2a025645607050ba3ab667,7/26/2019 16:33,7/27/2019 19:16,0,26.7,26.7,1,Horizontal,2,393,1.018,1,1,day
080f2a025645607050ba3ab667,7/26/2019 16:33,7/27/2019 19:16,0,26.7,26.7,1,Vertical,0,394,2.676,1,1,day
080f2a025645607050ba3ab667,7/26/2019 16:33,7/27/2019 19:16,0,26.7,26.7,1,Vertical,-8,395,0.908,0,1,day
080f2a025645607050ba3ab667,7/26/2019 16:33,7/27/2019 19:16,0,26.7,26.7,1,Vertical,2,396,1.133,1,1,day
080f2a025645607050ba3ab667,7/26/2019 16:33,7/27/2019 19:16,0,26.7,26.7,1,Horizontal,0,397,6.294,1,1,day
080f2a025645607050ba3ab667,7/26/2019 16:33,7/27/2019 19:16,0,26.7,26.7,1,Horizontal,4,398,0.744,1,1,day
080f2a025645607050ba3ab667,7/26/2019 16:33,7/27/2019 19:16,0,26.7,26.7,1,Horizontal,-2,399,1.304,0,1,day
080f2a025645607050ba3ab667,7/26/2019 16:33,7/27/2019 19:16,0,26.7,26.7,1,Vertical,8,400,0.883,1,1,day
080f2a025645607050ba3ab667,7/26/2019 16:33,7/27/2019 19:16,0,26.7,26.7,1,Vertical,-6,401,1.691,0,1,day
080f2a025645607050ba3ab667,7/26/2019 16:33,7/27/2019 19:16,0,26.7,26.7,1,Vertical,-4,402,11.725,0,1,day
080f2a025645607050ba3ab667,7/26/2019 16:33,7/27/2019 19:16,0,26.7,26.7,1,Horizontal,2,403,1.087,1,1,day
080f2a025645607050ba3ab667,7/26/2019 16:33,7/27/2019 19:16,0,26.7,26.7,1,Horizontal,8,404,0.676,1,1,day
080f2a025645607050ba3ab667,7/26/2019 16:33,7/27/2019 19:16,0,26.7,26.7,1,Horizontal,-8,405,0.638,0,1,day
080f2a025645607050ba3ab667,7/26/2019 16:33,7/27/2019 19:16,0,26.7,26.7,1,Vertical,-10,406,1.06,0,1,day
080f2a025645607050ba3ab667,7/26/2019 16:33,7/27/2019 19:16,0,26.7,26.7,1,Vertical,10,407,1.037,1,1,day
080f2a025645607050ba3ab667,7/26/2019 16:33,7/27/2019 19:16,0,26.7,26.7,1,Vertical,-4,408,13.204,0,1,day
080f2a025645607050ba3ab667,7/26/2019 16:33,7/27/2019 19:16,0,26.7,26.7,1,Horizontal,8,409,0.945,1,1,day
080f2a025645607050ba3ab667,7/26/2019 16:33,7/27/2019 19:16,0,26.7,26.7,1,Horizontal,8,410,0.589,1,1,day
080f2a025645607050ba3ab667,7/26/2019 16:33,7/27/2019 19:16,0,26.7,26.7,1,Horizontal,-8,411,0.614,0,1,day
080f2a025645607050ba3ab667,7/26/2019 16:33,7/27/2019 19:16,0,26.7,26.7,1,Vertical,0,412,11.251,1,1,day
080f2a025645607050ba3ab667,7/26/2019 16:33,7/27/2019 19:16,0,26.7,26.7,1,Vertical,8,413,1.283,1,1,day
080f2a025645607050ba3ab667,7/26/2019 16:33,7/27/2019 19:16,0,26.7,26.7,1,Vertical,-2,414,12.25,1,1,day
080f2a025645607050ba3ab667,7/26/2019 16:33,7/27/2019 19:16,0,26.7,26.7,1,Horizontal,0,415,3.181,1,1,day
080f2a025645607050ba3ab667,7/26/2019 16:33,7/27/2019 19:16,0,26.7,26.7,1,Horizontal,-8,416,0.827,0,1,day
080f2a025645607050ba3ab667,7/26/2019 16:33,7/27/2019 19:16,0,26.7,26.7,1,Horizontal,-4,417,0.721,0,1,day
080f2a025645607050ba3ab667,7/26/2019 16:33,7/27/2019 19:16,0,26.7,26.7,1,Vertical,8,418,0.964,1,1,day
080f2a025645607050ba3ab667,7/26/2019 16:33,7/27/2019 19:16,0,26.7,26.7,1,Vertical,-8,419,1.026,0,1,day
080f2a025645607050ba3ab667,7/26/2019 16:33,7/27/2019 19:16,0,26.7,26.7,1,Vertical,2,420,1.74,1,1,day
080f2a025645607050ba3ab667,7/26/2019 16:33,7/27/2019 19:16,0,26.7,26.7,1,Horizontal,10,421,1.371,1,1,day
080f2a025645607050ba3ab667,7/26/2019 16:33,7/27/2019 19:16,0,26.7,26.7,1,Horizontal,-6,422,0.643,0,1,day
080f2a025645607050ba3ab667,7/26/2019 16:33,7/27/2019 19:16,0,26.7,26.7,1,Horizontal,4,423,0.811,1,1,day
080f2a025645607050ba3ab667,7/26/2019 16:33,7/27/2019 19:16,0,26.7,26.7,1,Vertical,-6,424,2.571,0,1,day
080f2a025645607050ba3ab667,7/26/2019 16:33,7/27/2019 19:16,0,26.7,26.7,1,Vertical,-6,425,10.621,0,1,day
080f2a025645607050ba3ab667,7/26/2019 16:33,7/27/2019 19:16,0,26.7,26.7,1,Vertical,-10,426,1.122,0,1,day
080f2a025645607050ba3ab667,7/26/2019 16:33,7/27/2019 19:16,0,26.7,26.7,1,Horizontal,8,427,0.888,1,1,day
080f2a025645607050ba3ab667,7/26/2019 16:33,7/27/2019 19:16,0,26.7,26.7,1,Horizontal,-6,428,0.634,0,1,day
080f2a025645607050ba3ab667,7/26/2019 16:33,7/27/2019 19:16,0,26.7,26.7,1,Horizontal,-6,429,0.602,0,1,day
080f2a025645607050ba3ab667,7/26/2019 16:33,7/27/2019 19:16,0,26.7,26.7,1,Vertical,0,430,9.54,1,1,day
080f2a025645607050ba3ab667,7/26/2019 16:33,7/27/2019 19:16,0,26.7,26.7,1,Vertical,6,431,1.043,1,1,day
080f2a025645607050ba3ab667,7/26/2019 16:33,7/27/2019 19:16,0,26.7,26.7,1,Vertical,10,432,0.774,1,1,day
080f2a025645607050ba3ab667,7/26/2019 16:33,7/27/2019 19:16,0,26.7,26.7,1,Horizontal,0,433,2.316,1,1,day
080f2a025645607050ba3ab667,7/26/2019 16:33,7/27/2019 19:16,0,26.7,26.7,1,Horizontal,6,434,1.076,1,1,day
080f2a025645607050ba3ab667,7/26/2019 16:33,7/27/2019 19:16,0,26.7,26.7,1,Horizontal,2,435,1.112,1,1,day
080f2a025645607050ba3ab667,7/26/2019 16:33,7/27/2019 19:16,0,26.7,26.7,1,Vertical,-8,436,1.209,0,1,day
080f2a025645607050ba3ab667,7/26/2019 16:33,7/27/2019 19:16,0,26.7,26.7,1,Vertical,-4,437,2.176,0,1,day
080f2a025645607050ba3ab667,7/26/2019 16:33,7/27/2019 19:16,0,26.7,26.7,1,Vertical,8,438,1.311,1,1,day
080f2a025645607050ba3ab667,7/26/2019 16:33,7/27/2019 19:16,0,26.7,26.7,1,Horizontal,0,439,3.04,1,1,day
080f2a025645607050ba3ab667,7/26/2019 16:33,7/27/2019 19:16,0,26.7,26.7,1,Horizontal,-10,440,0.621,0,1,day
080f2a025645607050ba3ab667,7/26/2019 16:33,7/27/2019 19:16,0,26.7,26.7,1,Horizontal,-8,441,0.656,0,1,day
080f2a025645607050ba3ab667,7/26/2019 16:33,7/27/2019 19:16,0,26.7,26.7,1,Vertical,-8,442,2.801,0,1,day
080f2a025645607050ba3ab667,7/26/2019 16:33,7/27/2019 19:16,0,26.7,26.7,1,Vertical,4,443,1.748,1,1,day
080f2a025645607050ba3ab667,7/26/2019 16:33,7/27/2019 19:16,0,26.7,26.7,1,Vertical,4,444,1.439,1,1,day
080f2a025645607050ba3ab667,7/26/2019 16:33,7/27/2019 19:16,0,26.7,26.7,1,Horizontal,0,445,3.725,1,1,day
080f2a025645607050ba3ab667,7/26/2019 16:33,7/27/2019 19:16,0,26.7,26.7,1,Horizontal,10,446,0.591,1,1,day
080f2a025645607050ba3ab667,7/26/2019 16:33,7/27/2019 19:16,0,26.7,26.7,1,Horizontal,-2,447,1.249,0,1,day
080f2a025645607050ba3ab667,7/26/2019 16:33,7/27/2019 19:16,0,26.7,26.7,1,Vertical,0,448,13.012,1,1,day
080f2a025645607050ba3ab667,7/26/2019 16:33,7/27/2019 19:16,0,26.7,26.7,1,Vertical,4,449,1.62,1,1,day
080f2a025645607050ba3ab667,7/26/2019 16:33,7/27/2019 19:16,0,26.7,26.7,1,Vertical,8,450,1.237,1,1,day
080f2a025645607050ba3ab667,7/26/2019 16:33,7/27/2019 19:16,0,26.7,26.7,1,Horizontal,6,451,1.503,1,1,day
080f2a025645607050ba3ab667,7/26/2019 16:33,7/27/2019 19:16,0,26.7,26.7,1,Horizontal,-8,452,0.595,0,1,day
080f2a025645607050ba3ab667,7/26/2019 16:33,7/27/2019 19:16,0,26.7,26.7,1,Horizontal,-10,453,0.618,0,1,day
080f2a025645607050ba3ab667,7/26/2019 16:33,7/27/2019 19:16,0,26.7,26.7,1,Vertical,0,454,12.935,1,1,day
080f2a025645607050ba3ab667,7/26/2019 16:33,7/27/2019 19:16,0,26.7,26.7,1,Vertical,10,455,1.005,1,1,day
080f2a025645607050ba3ab667,7/26/2019 16:33,7/27/2019 19:16,0,26.7,26.7,1,Vertical,4,456,1.682,1,1,day
080f2a025645607050ba3ab667,7/26/2019 16:33,7/27/2019 19:16,0,26.7,26.7,1,Horizontal,0,457,2.839,1,1,day
080f2a025645607050ba3ab667,7/26/2019 16:33,7/27/2019 19:16,0,26.7,26.7,1,Horizontal,-4,458,0.747,0,1,day
080f2a025645607050ba3ab667,7/26/2019 16:33,7/27/2019 19:16,0,26.7,26.7,1,Horizontal,10,459,0.621,1,1,day
080f2a025645607050ba3ab667,7/26/2019 16:33,7/27/2019 19:16,0,26.7,26.7,1,Vertical,2,460,2.088,1,1,day
080f2a025645607050ba3ab667,7/26/2019 16:33,7/27/2019 19:16,0,26.7,26.7,1,Vertical,-4,461,9.992,0,1,day
080f2a025645607050ba3ab667,7/26/2019 16:33,7/27/2019 19:16,0,26.7,26.7,1,Vertical,-2,462,3.582,0,1,day
080f2a025645607050ba3ab667,7/26/2019 16:33,7/27/2019 19:16,0,26.7,26.7,1,Horizontal,0,463,2.576,1,1,day
080f2a025645607050ba3ab667,7/26/2019 16:33,7/27/2019 19:16,0,26.7,26.7,1,Horizontal,10,464,0.598,1,1,day
080f2a025645607050ba3ab667,7/26/2019 16:33,7/27/2019 19:16,0,26.7,26.7,1,Horizontal,-10,465,0.852,0,1,day
080f2a025645607050ba3ab667,7/26/2019 16:33,7/27/2019 19:16,0,26.7,26.7,1,Vertical,0,466,10.51,1,1,day
080f2a025645607050ba3ab667,7/26/2019 16:33,7/27/2019 19:16,0,26.7,26.7,1,Vertical,6,467,1.543,1,1,day
080f2a025645607050ba3ab667,7/26/2019 16:33,7/27/2019 19:16,0,26.7,26.7,1,Vertical,6,468,1.463,1,1,day
080f2a025645607050ba3ab667,7/26/2019 16:33,7/27/2019 19:16,0,26.7,26.7,1,Horizontal,-10,469,2.019,0,1,day
080f2a025645607050ba3ab667,7/26/2019 16:33,7/27/2019 19:16,0,26.7,26.7,1,Horizontal,10,470,0.843,1,1,day
080f2a025645607050ba3ab667,7/26/2019 16:33,7/27/2019 19:16,0,26.7,26.7,1,Horizontal,4,471,1.03,1,1,day
080f2a025645607050ba3ab667,7/26/2019 16:33,7/27/2019 19:16,0,26.7,26.7,1,Vertical,0,472,9.451,1,1,day
080f2a025645607050ba3ab667,7/26/2019 16:33,7/27/2019 19:16,0,26.7,26.7,1,Vertical,-6,473,1.813,0,1,day
080f2a025645607050ba3ab667,7/26/2019 16:33,7/27/2019 19:16,0,26.7,26.7,1,Vertical,-2,474,10.717,1,1,day
080f2a025645607050ba3ab667,7/26/2019 16:33,7/27/2019 19:16,0,26.7,26.7,1,Horizontal,-2,475,2.012,0,1,day
080f2a025645607050ba3ab667,7/26/2019 16:33,7/27/2019 19:16,0,26.7,26.7,1,Horizontal,-4,476,1.184,0,1,day
080f2a025645607050ba3ab667,7/26/2019 16:33,7/27/2019 19:16,0,26.7,26.7,1,Horizontal,-6,477,0.728,0,1,day
